Folder: olivine/olivine/FTIR

Note: README.md
# olivine

All of the raw data and python code used in Ferriss et al. submission to *Gechemica et Cosmochemica Acta* on H diffusivity in olivine.

Note this software requires [pynams v0.2.0](https://zenodo.org/record/1172001#.WoG_rudOlPY).

File: SC1-2-800C-7hr-background-copper.CSV
4.493401e+002,1.245602e-002
4.763391e+002,1.064248e-002
5.033381e+002,1.328637e-002
5.303371e+002,2.950650e-002
5.573361e+002,7.050666e-002
5.843350e+002,2.870948e-001
6.113340e+002,7.004036e-001
6.383330e+002,1.100226e+000
6.653320e+002,1.438623e+000
6.923309e+002,1.925888e+000
7.193300e+002,2.261580e+000
7.463289e+002,2.400032e+000
7.733279e+002,2.574126e+000
8.003269e+002,2.614096e+000
8.273259e+002,2.920869e+000
8.543248e+002,3.130228e+000
8.813238e+002,3.274107e+000
9.083228e+002,3.498168e+000
9.353218e+002,3.679042e+000
9.623207e+002,3.778011e+000
9.893197e+002,3.852219e+000
1.016319e+003,3.692225e+000
1.043318e+003,3.682152e+000
1.070317e+003,3.877501e+000
1.097316e+003,4.094171e+000
1.124315e+003,4.488251e+000
1.151314e+003,4.655128e+000
1.178313e+003,4.889811e+000
1.205312e+003,5.086836e+000
1.232311e+003,5.234894e+000
1.259310e+003,4.871249e+000
1.286308e+003,5.250721e+000
1.313307e+003,5.234889e+000
1.340307e+003,4.660438e+000
1.367305e+003,5.169970e+000
1.394304e+003,4.122694e+000
1.421303e+003,4.323084e+000
1.448302e+003,4.304078e+000
1.475301e+003,3.650573e+000
1.502300e+003,4.575903e+000
1.529299e+003,4.453036e+000
1.556298e+003,3.028370e+000
1.583297e+003,5.429761e+000
1.610296e+003,4.967030e+000
1.637295e+003,3.319017e+000
1.664294e+003,4.734585e+000
1.691293e+003,5.031689e+000
1.718292e+003,2.879194e+000
1.745291e+003,4.700587e+000
1.772290e+003,3.513360e+000
1.799289e+003,4.942262e+000
1.826288e+003,4.997708e+000
1.853287e+003,5.779954e+000
1.880286e+003,5.727339e+000
1.907285e+003,5.498988e+000
1.934284e+003,5.624515e+000
1.961283e+003,5.578001e+000
1.988282e+003,5.430693e+000
2.015281e+003,5.392886e+000
2.042280e+003,5.371340e+000
2.069279e+003,5.390512e+000
2.096278e+003,5.334145e+000
2.123277e+003,5.280812e+000
2.150276e+003,5.229196e+000
2.177275e+003,5.172370e+000
2.204274e+003,5.113336e+000
2.231273e+003,5.057971e+000
2.258272e+003,4.923241e+000
2.285271e+003,4.844540e+000
2.312270e+003,3.230141e+000
2.339269e+003,1.670906e+000
2.366268e+003,1.316978e+000
2.393267e+003,4.750952e+000
2.420266e+003,4.695790e+000
2.447265e+003,4.647906e+000
2.474264e+003,4.591093e+000
2.501262e+003,4.536314e+000
2.528261e+003,4.479571e+000
2.555260e+003,4.422092e+000
2.582260e+003,4.363893e+000
2.609259e+003,4.311791e+000
2.636258e+003,4.250528e+000
2.663256e+003,4.193540e+000
2.690255e+003,4.129973e+000
2.717254e+003,4.076218e+000
2.744253e+003,4.009613e+000
2.771252e+003,3.955755e+000
2.798251e+003,3.886819e+000
2.825250e+003,3.810514e+000
2.852249e+003,3.689059e+000
2.879248e+003,3.622965e+000
2.906247e+003,3.508191e+000
2.933246e+003,3.431029e+000
2.960245e+003,3.363081e+000
2.987244e+003,3.406402e+000
3.014243e+003,3.315752e+000
3.041242e+003,3.300360e+000
3.068241e+003,3.208074e+000
3.095240e+003,3.104816e+000
3.122239e+003,2.988260e+000
3.149238e+003,2.931669e+000
3.176237e+003,2.816842e+000
3.203236e+003,2.724182e+000
3.230235e+003,2.617997e+000
3.257234e+003,2.580918e+000
3.284233e+003,2.548437e+000
3.311232e+003,2.493249e+000
3.338231e+003,2.445346e+000
3.365230e+003,2.383363e+000
3.392229e+003,2.322562e+000
3.419228e+003,2.265921e+000
3.446227e+003,2.112178e+000
3.473226e+003,2.203442e+000
3.500225e+003,2.197228e+000
3.527224e+003,2.067136e+000
3.554223e+003,2.219748e+000
3.581222e+003,2.276928e+000
3.608221e+003,1.730042e+000
3.635220e+003,2.185136e+000
3.662219e+003,2.435533e+000
3.689218e+003,1.320856e+000
3.716217e+003,2.176509e+000
3.743216e+003,1.251893e+000
3.770215e+003,1.751406e+000
3.797214e+003,1.754895e+000
3.824213e+003,1.833954e+000
3.851211e+003,1.324687e+000
3.878210e+003,1.893980e+000
3.905209e+003,1.484699e+000
3.932208e+003,1.754688e+000
3.959208e+003,1.997721e+000
3.986206e+003,2.008124e+000
4.013205e+003,1.966243e+000
4.040204e+003,1.939242e+000
4.067203e+003,1.906630e+000
4.094202e+003,1.871646e+000
4.121201e+003,1.833496e+000
4.148200e+003,1.796038e+000
4.175199e+003,1.765950e+000
4.202198e+003,1.729255e+000
4.229197e+003,1.697961e+000
4.256196e+003,1.666886e+000
4.283195e+003,1.635820e+000
4.310194e+003,1.602908e+000
4.337193e+003,1.572170e+000
4.364192e+003,1.546355e+000
4.391191e+003,1.517771e+000
4.418190e+003,1.491571e+000
4.445189e+003,1.465229e+000
4.472188e+003,1.438018e+000
4.499187e+003,1.411577e+000
4.526186e+003,1.386658e+000
4.553185e+003,1.365568e+000
4.580184e+003,1.343856e+000
4.607183e+003,1.322635e+000
4.634182e+003,1.299278e+000
4.661181e+003,1.274090e+000
4.688180e+003,1.257010e+000
4.715179e+003,1.231558e+000
4.742178e+003,1.212539e+000
4.769177e+003,1.196242e+000
4.796176e+003,1.177134e+000
4.823175e+003,1.154141e+000
4.850174e+003,1.138474e+000
4.877173e+003,1.120068e+000
4.904172e+003,1.101470e+000
4.931171e+003,1.081084e+000
4.958169e+003,1.059488e+000
4.985168e+003,1.043505e+000
5.012167e+003,1.026980e+000
5.039167e+003,1.008120e+000
5.066166e+003,9.928789e-001
5.093165e+003,9.712662e-001
5.120164e+003,9.488329e-001
5.147163e+003,9.374436e-001
5.174162e+003,9.176665e-001
5.201161e+003,9.037794e-001
5.228160e+003,8.611817e-001
5.255158e+003,7.922516e-001
5.282157e+003,8.355017e-001
5.309156e+003,8.059245e-001
5.336155e+003,7.427271e-001
5.363154e+003,7.698906e-001
5.390153e+003,7.828969e-001
5.417152e+003,7.630944e-001
5.444151e+003,6.842866e-001
5.471150e+003,7.327191e-001
5.498149e+003,7.180016e-001
5.525148e+003,7.094221e-001
5.552147e+003,6.887821e-001
5.579146e+003,6.826579e-001
5.606145e+003,6.671032e-001
5.633144e+003,6.545246e-001
5.660143e+003,6.383412e-001
5.687142e+003,6.184339e-001
5.714141e+003,6.098506e-001
5.741140e+003,5.946277e-001
5.768139e+003,5.788522e-001
5.795138e+003,5.630160e-001
5.822137e+003,5.548260e-001
5.849136e+003,5.388636e-001
5.876135e+003,5.289283e-001
5.903134e+003,5.125974e-001
5.930133e+003,5.022925e-001
5.957132e+003,4.876021e-001
5.984131e+003,4.719157e-001
6.011130e+003,4.668337e-001
6.038129e+003,4.492134e-001
6.065128e+003,4.374374e-001
6.092127e+003,4.320400e-001
6.119126e+003,4.181911e-001
6.146125e+003,4.100579e-001
6.173124e+003,4.010229e-001
6.200123e+003,3.859881e-001
6.227122e+003,3.749330e-001
6.254121e+003,3.655627e-001
6.281120e+003,3.585590e-001
6.308119e+003,3.450491e-001
6.335118e+003,3.389058e-001
6.362117e+003,3.235620e-001
6.389116e+003,3.162704e-001
6.416115e+003,3.075455e-001
6.443113e+003,3.015481e-001
6.470112e+003,2.882191e-001
6.497111e+003,2.844838e-001
6.524110e+003,2.756789e-001
6.551109e+003,2.669260e-001
6.578108e+003,2.602145e-001
6.605107e+003,2.529695e-001
6.632106e+003,2.446397e-001
6.659105e+003,2.373827e-001
6.686104e+003,2.289133e-001
6.713104e+003,2.236365e-001
6.740102e+003,2.163117e-001
6.767101e+003,2.131629e-001
6.794100e+003,2.040804e-001
6.821099e+003,1.948382e-001
6.848098e+003,1.895527e-001
6.875097e+003,1.902063e-001
6.902096e+003,1.764813e-001
6.929095e+003,1.767883e-001
6.956094e+003,1.670294e-001
6.983093e+003,1.632263e-001
7.010092e+003,1.567859e-001
7.037091e+003,1.534789e-001
7.064090e+003,1.493828e-001
7.091089e+003,1.427494e-001
7.118088e+003,1.277323e-001
7.145087e+003,1.264867e-001
7.172086e+003,1.266824e-001
7.199085e+003,1.234082e-001
7.226084e+003,1.123616e-001
7.253083e+003,1.107769e-001
7.280082e+003,1.079102e-001
7.307081e+003,9.621596e-002
7.334080e+003,1.028467e-001
7.361079e+003,9.585725e-002
7.388078e+003,9.299070e-002
7.415077e+003,9.134153e-002
7.442076e+003,9.247292e-002
7.469075e+003,8.584750e-002
7.496074e+003,8.199238e-002
7.523073e+003,8.097101e-002
7.550072e+003,7.317425e-002
7.577071e+003,7.269298e-002
7.604070e+003,7.141484e-002
7.631068e+003,6.559827e-002
7.658067e+003,6.402127e-002
7.685066e+003,6.321246e-002
7.712065e+003,6.018348e-002
7.739064e+003,5.660874e-002
7.766063e+003,5.259689e-002
7.793063e+003,5.153831e-002
7.820062e+003,5.089132e-002
7.847061e+003,4.285909e-002
7.874060e+003,4.313096e-002
7.901059e+003,3.937115e-002
7.928057e+003,3.806271e-002
7.955056e+003,3.455653e-002
7.982055e+003,2.979914e-002
8.009054e+003,3.187897e-002
8.036053e+003,2.863714e-002
8.063052e+003,2.490503e-002
8.090051e+003,2.805440e-002
8.117050e+003,2.430954e-002
8.144049e+003,2.150566e-002
8.171048e+003,1.829045e-002
8.198047e+003,1.994355e-002
8.225046e+003,2.043015e-002
8.252045e+003,1.643064e-002
8.279044e+003,1.489802e-002
8.306043e+003,1.482693e-002
8.333042e+003,1.192686e-002
8.360041e+003,1.227407e-002
8.387040e+003,1.092633e-002
8.414039e+003,9.998067e-003
8.441038e+003,9.975987e-003
8.468037e+003,9.619273e-003
8.495036e+003,8.800737e-003
8.500821e+003,7.916727e-003

File: SC1-2-800C-7hr-c00-copper-baseline-high.CSV
wavenumber (/cm),baseline value (/cm),baseline-subtracted absorbance (/cm),
3149.24,0.327601,-0.00348395
3151.17,0.325336,0.0057144
3153.09,0.323081,0.00636286
3155.02,0.320836,-0.000802023
3156.95,0.318599,0.00209869
3158.88,0.316371,0.00252366
3160.81,0.314154,-0.00421997
3162.74,0.311945,-0.00175367
3164.67,0.309746,0.00236999
3166.59,0.307557,0.00462641
3168.52,0.305376,0.00439155
3170.45,0.303204,0.00292274
3172.38,0.301043,0.00183413
3174.31,0.29889,-0.00171243
3176.24,0.296748,-0.000949226
3178.17,0.294614,0.0032885
3180.09,0.29249,0.00238285
3182.02,0.290375,0.000407006
3183.95,0.288269,0.00264053
3185.88,0.286172,0.00604837
3187.81,0.284086,0.00508814
3189.74,0.282008,0.00982721
3191.66,0.27994,0.0124887
3193.59,0.277881,0.00956329
3195.52,0.275832,0.00663602
3197.45,0.273792,0.00986134
3199.38,0.271761,0.0113772
3201.31,0.269739,0.0124808
3203.24,0.267727,0.013713
3205.16,0.265724,0.00845563
3207.09,0.263731,0.00854413
3209.02,0.261748,0.0156394
3210.95,0.259773,0.0187078
3212.88,0.257808,0.0173683
3214.81,0.255851,0.0150819
3216.74,0.253904,0.014506
3218.66,0.251967,0.0171029
3220.59,0.250039,0.0209069
3222.52,0.248121,0.0175162
3224.45,0.246212,0.0171829
3226.38,0.244312,0.0149223
3228.31,0.242422,0.0159082
3230.24,0.24054,0.0161579
3232.16,0.238668,0.0188712
3234.09,0.236806,0.0269391
3236.02,0.234952,0.0302725
3237.95,0.233109,0.0229973
3239.88,0.231275,0.0143289
3241.81,0.229449,0.0148237
3243.73,0.227634,0.0242514
3245.66,0.225827,0.0280061
3247.59,0.22403,0.0233232
3249.52,0.222242,0.0217601
3251.45,0.220464,0.0238513
3253.38,0.218695,0.0205803
3255.3,0.216936,0.0214666
3257.23,0.215185,0.0288456
3259.16,0.213445,0.0273636
3261.09,0.211713,0.021608
3263.02,0.20999,0.0212089
3264.95,0.208278,0.0246327
3266.88,0.206574,0.0260669
3268.8,0.20488,0.0256236
3270.73,0.203196,0.0226471
3272.66,0.20152,0.0245317
3274.59,0.199853,0.0284438
3276.52,0.198197,0.026445
3278.45,0.196549,0.026332
3280.38,0.194911,0.0327063
3282.3,0.193283,0.0308791
3284.23,0.191663,0.0265048
3286.16,0.190054,0.0253958
3288.09,0.188453,0.029394
3290.02,0.186861,0.0301983
3291.95,0.185279,0.0279706
3293.88,0.183707,0.0330058
3295.8,0.182143,0.0340287
3297.73,0.18059,0.0275436
3299.66,0.179045,0.026466
3301.59,0.17751,0.0318369
3303.52,0.175984,0.0389833
3305.45,0.174467,0.040069
3307.38,0.17296,0.035199
3309.3,0.171463,0.0329579
3311.23,0.169974,0.0370137
3313.16,0.168495,0.0389918
3315.09,0.167025,0.0317926
3317.02,0.165565,0.0294302
3318.95,0.164114,0.0305769
3320.88,0.162672,0.0332916
3322.8,0.16124,0.0335303
3324.73,0.159817,0.0316404
3326.66,0.158403,0.0328664
3328.59,0.156999,0.0342531
3330.52,0.155604,0.0370711
3332.45,0.154219,0.0396633
3334.37,0.152842,0.0420072
3336.3,0.151476,0.0414648
3338.23,0.150118,0.0373193
3340.16,0.14877,0.0366207
3342.09,0.147431,0.0393776
3344.02,0.146102,0.0417352
3345.95,0.144781,0.0428752
3347.87,0.143471,0.042118
3349.8,0.142169,0.0451695
3351.73,0.140877,0.0447272
3353.66,0.139594,0.0420438
3355.59,0.138321,0.048941
3357.52,0.137057,0.0529345
3359.44,0.135803,0.0496311
3361.37,0.134557,0.0480065
3363.3,0.133321,0.0483993
3365.23,0.132094,0.0478389
3367.16,0.130878,0.0466784
3369.09,0.129669,0.0456143
3371.01,0.128471,0.0466327
3372.94,0.127282,0.0474477
3374.87,0.126102,0.0489107
3376.8,0.124931,0.0495423
3378.73,0.12377,0.0537022
3380.66,0.122618,0.0543135
3382.59,0.121476,0.0469365
3384.51,0.120343,0.03873
3386.44,0.119219,0.0480895
3388.37,0.118105,0.0578381
3390.3,0.117,0.0533081
3392.23,0.115904,0.0447245
3394.16,0.114818,0.0422262
3396.09,0.113741,0.0509113
3398.01,0.112673,0.059433
3399.94,0.111615,0.0612143
3401.87,0.110566,0.0554859
3403.8,0.109526,0.0509855
3405.73,0.108496,0.0559859
3407.66,0.107475,0.0652644
3409.59,0.106464,0.0644522
3411.51,0.105461,0.0576991
3413.44,0.104469,0.0557836
3415.37,0.103485,0.0594455
3417.3,0.102511,0.0578974
3419.23,0.101546,0.0526059
3421.16,0.100591,0.0545376
3423.09,0.0996446,0.0550664
3425.01,0.0987081,0.0547318
3426.94,0.0977805,0.0584422
3428.87,0.0968627,0.0608812
3430.8,0.0959538,0.0605246
3432.73,0.0950547,0.065235
3434.66,0.0941645,0.0692556
3436.58,0.0932842,0.0698798
3438.51,0.0924127,0.0660378
3440.44,0.091551,0.0635295
3442.37,0.0906982,0.0654254
3444.3,0.0898552,0.056883
3446.23,0.0890211,0.0505312
3448.16,0.0881969,0.0640058
3450.08,0.0873815,0.0628683
3452.01,0.0865759,0.0610372
3453.94,0.0857792,0.0660646
3455.87,0.0849923,0.0681883
3457.8,0.0842144,0.0679635
3459.73,0.0834462,0.0632056
3461.66,0.0826869,0.0592726
3463.58,0.0819374,0.0666849
3465.51,0.0811969,0.0656995
3467.44,0.0804661,0.0658031
3469.37,0.0797443,0.066625
3471.3,0.0790322,0.0664789
3473.23,0.078329,0.0724964
3475.15,0.0776356,0.0692961
3477.08,0.0769512,0.0632976
3479.01,0.0762765,0.0680565
3480.94,0.0756108,0.0783396
3482.87,0.0749548,0.0820442
3484.8,0.0743078,0.0807085
3486.72,0.0736705,0.0832451
3488.65,0.0730422,0.0840261
3490.58,0.0724235,0.0846103
3492.51,0.071814,0.0804398
3494.44,0.071214,0.0801815
3496.37,0.0706232,0.0798955
3498.3,0.0700419,0.082088
3500.22,0.0694698,0.0762111
3502.15,0.0689072,0.0729083
3504.08,0.0683538,0.0761531
3506.01,0.0678099,0.0775723
3507.94,0.0672752,0.0788687
3509.87,0.06675,0.0881904
3511.8,0.066234,0.0989668
3513.72,0.0657276,0.100081
3515.65,0.0652302,0.0913877
3517.58,0.0647425,0.0952713
3519.51,0.0642638,0.102758
3521.44,0.0637948,0.106903
3523.37,0.0633349,0.113913
3525.3,0.0628845,0.113825
3527.22,0.0624433,0.11315
3529.15,0.0620117,0.105752
3531.08,0.0615891,0.0947018
3533.01,0.0611762,0.0948635
3534.94,0.0607724,0.0939538
3536.87,0.0603781,0.0935571
3538.8,0.059993,0.0930193
3540.72,0.0596175,0.0883165
3542.65,0.0592511,0.0802461
3544.58,0.0588942,0.0910159
3546.51,0.0585465,0.0944365
3548.44,0.0582084,0.0799364
3550.37,0.0578794,0.0684327
3552.29,0.05756,0.080322
3554.22,0.0572497,0.0914177
3556.15,0.0569489,0.0901724
3558.08,0.0566574,0.0978373
3560.01,0.0563753,0.120095
3561.94,0.0561024,0.138175
3563.86,0.0558391,0.1425
3565.79,0.0555849,0.149059
3567.72,0.0553402,0.165333
3569.65,0.0551048,0.166322
3571.58,0.0548788,0.172597
3573.51,0.0546621,0.168685
3575.44,0.0544548,0.147639
3577.36,0.0542568,0.116689
3579.29,0.0540682,0.0926098
3581.22,0.0538889,0.0767404
3583.15,0.053719,0.0701611
3585.08,0.0535584,0.0606032
3587.01,0.0534072,0.0640502
3588.94,0.0532653,0.0862921
3590.86,0.0531328,0.0829994
3592.79,0.0530096,0.0881206
3594.72,0.0528958,0.108584
3596.65,0.0527913,0.129086
3598.58,0.0526962,0.13445
3600.51,0.0526105,0.122613
3602.43,0.0525341,0.0899678
3604.36,0.052467,0.0571885
3606.29,0.0524093,0.0456164
3608.22,0.0523609,0.0464903
3610.15,0.0523219,0.040713
3612.08,0.0522923,0.0359205
3614.01,0.052272,0.0387189
3615.93,0.052261,0.0328815
3617.86,0.0522594,0.0388272
3619.79,0.0522672,0.0476349
3621.72,0.0522842,0.0428682
3623.65,0.0523107,0.037295
3625.58,0.0523465,0.0305828
3627.51,0.0523917,0.026101
3629.43,0.0524462,0.058396
3631.36,0.05251,0.0449974
3633.29,0.0525832,0.0274883
3635.22,0.0526658,0.0287622
3637.15,0.0527577,0.0240007
3639.08,0.052859,0.0193182
3641.01,0.0529695,0.0173749
3642.93,0.0530895,0.0227736
3644.86,0.0532188,0.0143489
3646.79,0.0533575,0.00633014
3648.72,0.0535055,0.0229232
3650.65,0.0536629,0.0445185
3652.58,0.0538296,0.0286669
3654.51,0.0540057,0.00182201
3656.43,0.0541911,0.00850837
3658.36,0.0543859,0.0164157
3660.29,0.05459,0.00992525
3662.22,0.0548035,0.00441601
3664.15,0.0550263,0.00443639
3666.08,0.0552585,0.00148759
3668,0.0555,0.00463787
3669.93,0.0557509,0.0299771
3671.86,0.0560111,0.032679
3673.79,0.0562807,0.00612366
3675.72,0.0565596,0.0223248
3677.65,0.0568479,0.0214345
3679.57,0.0571455,0.0132009
3681.5,0.0574526,0.0115464
3683.43,0.0577688,0.00457851
3685.36,0.0580946,-0.00353095
3687.29,0.0584295,-0.00930616
3689.22,0.058774,0.0125719
3691.15,0.0591277,0.0205613
3693.07,0.0594909,0.00904625
3695,0.0598632,-0.0056484
3696.93,0.0602451,-0.00553732

File: SC1-2-800C-7hr-c00-copper-baseline-low.CSV
wavenumber (/cm),baseline value (/cm),baseline-subtracted absorbance (/cm),
3450.08,0.151848,-0.00159845
3452.01,0.151145,-0.00353175
3453.94,0.150441,0.0014028
3455.87,0.149738,0.00344302
3457.8,0.149034,0.00314407
3459.73,0.14833,-0.00167864
3461.66,0.147627,-0.00566707
3463.58,0.146923,0.00169914
3465.51,0.146219,0.000676953
3467.44,0.145516,0.000753158
3469.37,0.144812,0.00155701
3471.3,0.144109,0.00140224
3473.23,0.143405,0.00742039
3475.15,0.142702,0.00423014
3477.08,0.141998,-0.00174909
3479.01,0.141294,0.00303853
3480.94,0.140591,0.0133597
3482.87,0.139887,0.0171118
3484.8,0.139183,0.0158328
3486.72,0.13848,0.0184356
3488.65,0.137776,0.019292
3490.58,0.137073,0.019961
3492.51,0.136369,0.0158847
3494.44,0.135666,0.0157299
3496.37,0.134962,0.0155568
3498.3,0.134258,0.0178714
3500.22,0.133555,0.0121262
3502.15,0.132851,0.00896428
3504.08,0.132147,0.0123594
3506.01,0.131444,0.0139381
3507.94,0.13074,0.0154036
3509.87,0.130037,0.0249036
3511.8,0.129333,0.0358677
3513.72,0.12863,0.0371786
3515.65,0.127926,0.028692
3517.58,0.127222,0.0327913
3519.51,0.126519,0.0405036
3521.44,0.125815,0.0448828
3523.37,0.125111,0.0521367
3525.3,0.124408,0.0523013
3527.22,0.123704,0.0518887
3529.15,0.123001,0.0447623
3531.08,0.122297,0.0339938
3533.01,0.121594,0.0344461
3534.94,0.12089,0.0338363
3536.87,0.120186,0.0337487
3538.8,0.119483,0.0335296
3540.72,0.118779,0.0291547
3542.65,0.118076,0.0214217
3544.58,0.117372,0.0325381
3546.51,0.116668,0.0363147
3548.44,0.115965,0.0221799
3550.37,0.115261,0.011051
3552.29,0.114558,0.0233242
3554.22,0.113854,0.0348134
3556.15,0.11315,0.0339708
3558.08,0.112447,0.042048
3560.01,0.111743,0.064727
3561.94,0.11104,0.0832384
3563.86,0.110336,0.0880032
3565.79,0.109632,0.0950115
3567.72,0.108929,0.111744
3569.65,0.108225,0.113201
3571.58,0.107522,0.119954
3573.51,0.106818,0.116529
3575.44,0.106115,0.0959795
3577.36,0.105411,0.065535
3579.29,0.104707,0.0419707
3581.22,0.104004,0.0266258
3583.15,0.1033,0.02058
3585.08,0.102596,0.0115653
3587.01,0.101893,0.0155645
3588.94,0.101189,0.0383682
3590.86,0.100486,0.0356465
3592.79,0.0997819,0.0413483
3594.72,0.0990785,0.0624009
3596.65,0.0983747,0.0835024
3598.58,0.0976713,0.0894747
3600.51,0.0969675,0.0782554
3602.43,0.0962641,0.0462377
3604.36,0.0955603,0.0140951
3606.29,0.0948569,0.00316879
3608.22,0.0941532,0.00469806
3610.15,0.0934497,-0.000414813
3612.08,0.092746,-0.00453323
3614.01,0.0920425,-0.00105164
3615.93,0.0913388,-0.00619628
3617.86,0.0906353,0.000451233
3619.79,0.0899316,0.00997049
3621.72,0.0892281,0.00592428
3623.65,0.0885244,0.00108137