Folder: olivine/olivine/FTIR (part 11)

File: SC1-2-800C-7hr-c08-copper-SiO-baseline.CSV
wavenumber (/cm),baseline value (/cm),baseline-subtracted absorbance (/cm),
1625.72,12.1011,7.10543e-15
1627.65,12.0782,0.16205
1629.58,12.0552,0.224164
1631.51,12.0322,0.116968
1633.44,12.0093,-0.129186
1635.37,11.9863,-0.257589
1637.3,11.9634,-0.176118
1639.22,11.9404,0.153955
1641.15,11.9175,0.176324
1643.08,11.8945,-0.0561781
1645.01,11.8716,-0.387403
1646.94,11.8486,-0.368863
1648.87,11.8256,0.211284
1650.8,11.8027,0.36458
1652.72,11.7797,-0.0232
1654.65,11.7568,-0.182291
1656.58,11.7338,0.675962
1658.51,11.7109,1.17245
1660.44,11.6879,1.25842
1662.37,11.6649,1.20127
1664.29,11.642,1.11768
1666.22,11.619,0.954539
1668.15,11.5961,0.6827
1670.08,11.5731,0.62275
1672.01,11.5502,0.875246
1673.94,11.5272,0.880124
1675.87,11.5043,1.09351
1677.79,11.4813,1.52484
1679.72,11.4584,1.69128
1681.65,11.4354,1.50334
1683.58,11.4124,0.676516
1685.51,11.3895,0.15019
1687.44,11.3665,0.434355
1689.37,11.3436,0.928569
1691.29,11.3206,1.15333
1693.22,11.2977,1.0469
1695.15,11.2747,0.923085
1697.08,11.2517,0.88792
1699.01,11.2288,1.3514
1700.94,11.2058,1.31293
1702.86,11.1829,1.20619
1704.79,11.1599,1.24597
1706.72,11.137,1.57028
1708.65,11.114,1.77368
1710.58,11.0911,1.72765
1712.51,11.0681,1.75032
1714.43,11.0451,1.1945
1716.36,11.0222,0.927875
1718.29,10.9992,1.73526
1720.22,10.9763,2.00032
1722.15,10.9533,1.61713
1724.08,10.9304,1.46119
1726.01,10.9074,1.68122
1727.93,10.8844,1.93615
1729.86,10.8615,1.88669
1731.79,10.8385,1.55064
1733.72,10.8156,1.45997
1735.65,10.7926,2.11363
1737.58,10.7697,2.03663
1739.51,10.7467,1.83908
1741.43,10.7238,1.67063
1743.36,10.7008,1.69045
1745.29,10.6779,2.09271
1747.22,10.6549,2.08485
1749.15,10.6319,1.76896
1751.08,10.609,1.83421
1753.01,10.586,1.9371
1754.93,10.5631,2.0592
1756.86,10.5401,2.20535
1758.79,10.5172,2.40532
1760.72,10.4942,2.22478
1762.65,10.4712,2.27454
1764.58,10.4483,2.63791
1766.51,10.4253,3.01141
1768.43,10.4024,3.21323
1770.36,10.3794,2.86141
1772.29,10.3565,2.76021
1774.22,10.3335,2.4931
1776.15,10.3106,2.46193
1778.08,10.2876,2.34942
1780,10.2646,2.10527
1781.93,10.2417,2.16396
1783.86,10.2187,2.63001
1785.79,10.1958,2.81375
1787.72,10.1728,2.72503
1789.65,10.1499,2.90503
1791.58,10.1269,2.72177
1793.5,10.1039,2.4931
1795.43,10.081,2.72495
1797.36,10.058,2.89425
1799.29,10.0351,2.88851
1801.22,10.0121,2.9615
1803.15,9.98918,2.9026
1805.08,9.96621,2.90791
1807,9.94326,2.94876
1808.93,9.9203,2.67252
1810.86,9.89735,2.82205
1812.79,9.87439,3.02637
1814.72,9.85144,2.80076
1816.65,9.82848,2.78039
1818.57,9.80553,3.06182
1820.5,9.78257,3.02078
1822.43,9.75962,2.8459
1824.36,9.73666,3.47084
1826.29,9.71371,3.53483
1828.22,9.69074,3.01575
1830.14,9.66779,2.89597
1832.07,9.64483,3.19918
1834,9.62188,3.32857
1835.93,9.59892,3.35399
1837.86,9.57597,3.29806
1839.79,9.55301,3.47611
1841.72,9.53006,3.26221
1843.64,9.5071,2.9789
1845.57,9.48415,3.13354
1847.5,9.46118,3.41791
1849.43,9.43824,3.42919
1851.36,9.41527,3.45825
1853.29,9.39232,3.54104
1855.22,9.36936,3.73152
1857.14,9.34641,3.70494
1859.07,9.32345,3.63095
1861,9.3005,4.08985
1862.93,9.27754,4.06671
1864.86,9.25459,3.6196
1866.79,9.23164,3.37366
1868.71,9.20868,3.60962
1870.64,9.18571,3.62372
1872.57,9.16276,3.69399
1874.5,9.13981,3.66629
1876.43,9.11685,3.83164
1878.36,9.09389,3.81204
1880.29,9.07094,4.03577
1882.21,9.04798,4.68832
1884.14,9.02503,4.51574
1886.07,9.00207,4.16424
1888,8.97912,3.98734
1889.93,8.95616,3.97348
1891.86,8.93321,3.87973
1893.79,8.91024,4.10923
1895.71,8.88729,4.50707
1897.64,8.86433,4.48332
1899.57,8.84138,4.19559
1901.5,8.81842,4.168
1903.43,8.79547,4.26996
1905.36,8.77251,4.30316
1907.29,8.74956,4.5394
1909.21,8.7266,4.34039
1911.14,8.70365,4.03026
1913.07,8.68069,4.30359
1915,8.65774,5.04057
1916.93,8.63479,4.81021
1918.86,8.61182,4.5303
1920.79,8.58886,4.7557
1922.71,8.56591,4.76711
1924.64,8.54296,4.75561
1926.57,8.52,4.37069
1928.5,8.49704,4.34117
1930.43,8.47409,4.46833
1932.36,8.45114,4.65496
1934.28,8.42818,4.67326
1936.21,8.40522,4.51917
1938.14,8.38227,4.58002
1940.07,8.35932,4.67123
1942,8.33635,4.60092
1943.93,8.31339,4.26774
1945.86,8.29044,4.44536
1947.78,8.26749,4.996
1949.71,8.24453,4.97623
1951.64,8.22157,4.67785
1953.57,8.19862,4.39492
1955.5,8.17567,4.43431
1957.43,8.15271,4.66438
1959.35,8.12976,4.91163
1961.28,8.1068,4.73792
1963.21,8.08385,4.55161
1965.14,8.06088,4.5841
1967.07,8.03793,4.67919
1969,8.01497,4.93041
1970.92,7.99202,4.96274
1972.85,7.96906,5.05804
1974.78,7.94611,5.29309
1976.71,7.92315,5.76961
1978.64,7.9002,5.43122
1980.57,7.87724,5.29675
1982.5,7.85429,5.44344
1984.42,7.83132,5.08155
1986.35,7.80836,4.94151
1988.28,7.78541,4.60435
1990.21,7.76246,4.60946
1992.14,7.7395,5.25826
1994.07,7.71654,5.63442
1996,7.69359,5.53595
1997.92,7.67064,5.23712
1999.85,7.64768,5.18333
2001.78,7.62473,5.33361
2003.71,7.60177,5.19729
2005.64,7.57882,5.20967
2007.57,7.55585,5.65546
2009.49,7.5329,6.002
2011.42,7.50994,5.75706
2013.35,7.48699,5.33901
2015.28,7.46403,5.33931
2017.21,7.44108,5.74608
2019.14,7.41812,6.23898
2021.07,7.39517,5.97308
2022.99,7.37221,5.90663
2024.92,7.34926,5.86448
2026.85,7.3263,5.47757
2028.78,7.30335,5.38904
2030.71,7.28038,5.59431
2032.64,7.25743,5.65016
2034.57,7.23447,5.43018
2036.49,7.21152,5.70459
2038.42,7.18856,6.27155
2040.35,7.16561,6.42536
2042.28,7.14265,6.01501
2044.21,7.1197,5.98616
2046.14,7.09674,6.27201
2048.07,7.07379,6.05058
2049.99,7.05083,5.68659
2051.92,7.02788,5.75473
2053.85,7.00491,5.679
2055.78,6.98196,5.01627
2057.71,6.959,4.46354
2059.64,6.93605,3.94179
2061.57,6.91309,3.65875
2063.49,6.89014,3.34447
2065.42,6.86718,2.95569
2067.35,6.84423,2.63345
2069.28,6.82127,2.48156
2071.21,6.79832,2.31736
2073.14,6.77536,2.02569
2075.06,6.75241,1.80156
2076.99,6.72944,1.65195
2078.92,6.70649,1.56254
2080.85,6.68353,1.4783
2082.78,6.66058,1.34642
2084.71,6.63762,1.23217
2086.64,6.61467,1.12202
2088.56,6.59171,1.01234
2090.49,6.56876,0.912105
2092.42,6.5458,0.825737
2094.35,6.52285,0.781023
2096.28,6.49988,0.728881
2098.21,6.47693,0.648879
2100.14,6.45397,0.566453
2102.06,6.43102,0.513259
2103.99,6.40806,0.479362
2105.92,6.38511,0.462951
2107.85,6.36215,0.443494
2109.78,6.3392,0.402757
2111.71,6.31624,0.381501
2113.63,6.29329,0.333022
2115.56,6.27033,0.27487
2117.49,6.24738,0.26598
2119.42,6.22441,0.256429
2121.35,6.20146,0.229202
2123.28,6.1785,0.205418
2125.2,6.15555,0.182717
2127.13,6.13259,0.161459
2129.06,6.10964,0.144608
2130.99,6.08668,0.145628
2132.92,6.06373,0.123458
2134.85,6.04077,0.0926636
2136.78,6.01782,0.0691094
2138.7,5.99486,0.0457077
2140.63,5.97191,0.0427923
2142.56,5.94894,0.0390721
2144.49,5.92599,0.0252177
2146.42,5.90303,0.0200895
2148.35,5.88008,0.0148296

File: SC1-2-800C-7hr-c08-copper.CSV
4.493401e+002,2.017094e-001
4.763391e+002,2.382785e-001
5.033381e+002,2.363199e-001
5.303371e+002,5.116001e-001
5.573361e+002,1.011472e+000
5.843350e+002,1.364131e+000
6.113340e+002,1.663289e+000
6.383330e+002,1.831559e+000
6.653320e+002,1.883251e+000
6.923309e+002,1.960107e+000
7.193300e+002,1.963722e+000
7.463289e+002,1.982314e+000
7.733279e+002,1.998846e+000
8.003269e+002,2.011339e+000
8.273259e+002,2.043009e+000
8.543248e+002,1.979920e+000
8.813238e+002,2.010213e+000
9.083228e+002,2.063646e+000
9.353218e+002,2.064475e+000
9.623207e+002,2.127718e+000
9.893197e+002,2.129652e+000
1.016319e+003,2.124481e+000
1.043318e+003,2.054972e+000
1.070317e+003,2.165062e+000
1.097316e+003,2.104172e+000
1.124315e+003,2.101584e+000
1.151314e+003,2.143127e+000
1.178313e+003,2.243401e+000
1.205312e+003,2.174834e+000
1.232311e+003,2.176020e+000
1.259310e+003,2.079380e+000
1.286308e+003,2.144928e+000
1.313307e+003,2.135802e+000
1.340307e+003,2.086349e+000
1.367305e+003,2.170018e+000
1.394304e+003,2.166402e+000
1.421303e+003,2.122482e+000
1.448302e+003,2.072924e+000
1.475301e+003,2.082296e+000
1.502300e+003,2.096828e+000
1.529299e+003,2.127769e+000
1.556298e+003,2.105908e+000
1.583297e+003,2.251831e+000
1.610296e+003,2.130737e+000
1.637295e+003,2.076536e+000
1.664294e+003,2.268938e+000
1.691293e+003,2.212403e+000
1.718292e+003,2.263956e+000
1.745291e+003,2.271091e+000
1.772290e+003,2.339574e+000
1.799289e+003,2.301371e+000
1.826288e+003,2.365664e+000
1.853287e+003,2.303304e+000
1.880286e+003,2.337602e+000
1.907285e+003,2.373662e+000
1.934284e+003,2.336558e+000
1.961283e+003,2.285764e+000
1.988282e+003,2.195746e+000
2.015281e+003,2.277578e+000
2.042280e+003,2.347682e+000
2.069279e+003,1.584966e+000
2.096278e+003,1.174592e+000
2.123277e+003,1.007431e+000
2.150276e+003,9.031983e-001
2.177275e+003,8.138582e-001
2.204274e+003,7.335926e-001
2.231273e+003,6.595675e-001
2.258272e+003,5.953678e-001
2.285271e+003,5.390751e-001
2.312270e+003,4.927244e-001
2.339269e+003,4.538457e-001
2.366268e+003,4.106854e-001
2.393267e+003,3.504007e-001
2.420266e+003,3.134031e-001
2.447265e+003,2.817305e-001
2.474264e+003,2.628359e-001
2.501262e+003,2.433458e-001
2.528261e+003,1.982198e-001
2.555260e+003,1.726431e-001
2.582260e+003,1.488675e-001
2.609259e+003,1.238770e-001
2.636258e+003,1.071772e-001
2.663256e+003,8.605634e-002
2.690255e+003,5.636552e-002
2.717254e+003,2.612044e-002
2.744253e+003,5.487256e-003
2.771252e+003,-6.701051e-003
2.798251e+003,-1.867994e-002
2.825250e+003,-2.878354e-002
2.852249e+003,-3.437709e-002
2.879248e+003,-5.414186e-002
2.906247e+003,-6.580704e-002
2.933246e+003,-7.391359e-002
2.960245e+003,-8.589092e-002
2.987244e+003,-9.985614e-002
3.014243e+003,-1.224620e-001
3.041242e+003,-1.431889e-001
3.068241e+003,-1.565942e-001
3.095240e+003,-1.661029e-001
3.122239e+003,-1.739413e-001
3.149238e+003,-1.794582e-001
3.176237e+003,-1.849588e-001
3.203236e+003,-1.895586e-001
3.230235e+003,-1.936820e-001
3.257234e+003,-1.975988e-001
3.284233e+003,-2.014192e-001
3.311232e+003,-2.042928e-001
3.338231e+003,-2.089776e-001
3.365230e+003,-2.107891e-001
3.392229e+003,-2.149229e-001
3.419228e+003,-2.157605e-001
3.446227e+003,-2.161966e-001
3.473226e+003,-2.150978e-001
3.500225e+003,-2.185168e-001
3.527224e+003,-2.143699e-001
3.554223e+003,-2.214405e-001
3.581222e+003,-2.249664e-001
3.608221e+003,-2.342610e-001
3.635220e+003,-2.384467e-001
3.662219e+003,-2.410441e-001
3.689218e+003,-2.429847e-001
3.716217e+003,-2.437507e-001
3.743216e+003,-2.479508e-001
3.770215e+003,-2.470237e-001
3.797214e+003,-2.476182e-001
3.824213e+003,-2.476638e-001
3.851211e+003,-2.545893e-001
3.878210e+003,-2.530610e-001
3.905209e+003,-2.495195e-001
3.932208e+003,-2.513448e-001
3.959208e+003,-2.540146e-001
3.986206e+003,-2.547050e-001
4.013205e+003,-2.566272e-001
4.040204e+003,-2.569644e-001
4.067203e+003,-2.571037e-001
4.094202e+003,-2.573557e-001
4.121201e+003,-2.585603e-001
4.148200e+003,-2.592285e-001
4.175199e+003,-2.593489e-001
4.202198e+003,-2.606300e-001
4.229197e+003,-2.608878e-001
4.256196e+003,-2.608728e-001
4.283195e+003,-2.606832e-001
4.310194e+003,-2.611526e-001
4.337193e+003,-2.622880e-001
4.364192e+003,-2.613659e-001
4.391191e+003,-2.616960e-001
4.418190e+003,-2.620041e-001
4.445189e+003,-2.616562e-001
4.472188e+003,-2.628134e-001
4.499187e+003,-2.626282e-001
4.526186e+003,-2.623996e-001
4.553185e+003,-2.616037e-001
4.580184e+003,-2.610428e-001
4.607183e+003,-2.612095e-001
4.634182e+003,-2.619131e-001
4.661181e+003,-2.628398e-001
4.688180e+003,-2.618243e-001
4.715179e+003,-2.641796e-001
4.742178e+003,-2.643040e-001
4.769177e+003,-2.630574e-001
4.796176e+003,-2.633702e-001
4.823175e+003,-2.646946e-001
4.850174e+003,-2.632173e-001
4.877173e+003,-2.627764e-001
4.904172e+003,-2.622803e-001
4.931171e+003,-2.627895e-001
4.958169e+003,-2.648980e-001
4.985168e+003,-2.627661e-001
5.012167e+003,-2.635856e-001
5.039167e+003,-2.645484e-001
5.066166e+003,-2.627903e-001
5.093165e+003,-2.632967e-001
5.120164e+003,-2.636092e-001
5.147163e+003,-2.636836e-001
5.174162e+003,-2.643377e-001
5.201161e+003,-2.632578e-001
5.228160e+003,-2.613294e-001
5.255158e+003,-2.629172e-001
5.282157e+003,-2.625050e-001
5.309156e+003,-2.635469e-001
5.336155e+003,-2.576468e-001
5.363154e+003,-2.591346e-001
5.390153e+003,-2.627253e-001
5.417152e+003,-2.572041e-001
5.444151e+003,-2.619270e-001
5.471150e+003,-2.625779e-001
5.498149e+003,-2.582984e-001
5.525148e+003,-2.610402e-001
5.552147e+003,-2.600744e-001
5.579146e+003,-2.578329e-001
5.606145e+003,-2.580669e-001
5.633144e+003,-2.570919e-001
5.660143e+003,-2.551262e-001
5.687142e+003,-2.571893e-001
5.714141e+003,-2.532357e-001
5.741140e+003,-2.523517e-001
5.768139e+003,-2.524616e-001
5.795138e+003,-2.502316e-001
5.822137e+003,-2.459297e-001
5.849136e+003,-2.449529e-001
5.876135e+003,-2.394230e-001
5.903134e+003,-2.399914e-001
5.930133e+003,-2.368138e-001
5.957132e+003,-2.333435e-001
5.984131e+003,-2.310030e-001
6.011130e+003,-2.226012e-001
6.038129e+003,-2.201263e-001
6.065128e+003,-2.170668e-001
6.092127e+003,-2.060005e-001
6.119126e+003,-2.032839e-001
6.146125e+003,-1.893190e-001
6.173124e+003,-1.793375e-001
6.200123e+003,-1.755266e-001
6.227122e+003,-1.700002e-001
6.254121e+003,-1.552925e-001
6.281120e+003,-1.439853e-001
6.308119e+003,-1.380547e-001
6.335118e+003,-1.221846e-001
6.362117e+003,-1.149720e-001
6.389116e+003,-9.428562e-002
6.416115e+003,-8.637797e-002
6.443113e+003,-6.496561e-002
6.470112e+003,-4.933439e-002
6.497111e+003,-3.155617e-002
6.524110e+003,-1.028984e-003
6.551109e+003,3.477553e-003
6.578108e+003,4.257279e-002
6.605107e+003,5.534868e-002
6.632106e+003,8.010124e-002
6.659105e+003,1.111277e-001
6.686104e+003,1.272651e-001
6.713104e+003,1.751038e-001
6.740102e+003,1.953406e-001
6.767101e+003,2.458715e-001
6.794100e+003,2.623168e-001
6.821099e+003,2.945060e-001
6.848098e+003,3.328081e-001
6.875097e+003,3.695123e-001
6.902096e+003,3.704789e-001
6.929095e+003,4.768295e-001
6.956094e+003,4.906260e-001
6.983093e+003,5.336173e-001
7.010092e+003,5.560399e-001
7.037091e+003,5.822941e-001
7.064090e+003,6.580474e-001
7.091089e+003,6.799007e-001
7.118088e+003,7.448711e-001
7.145087e+003,7.186908e-001
7.172086e+003,8.059276e-001
7.199085e+003,8.438291e-001
7.226084e+003,9.710199e-001
7.253083e+003,9.129648e-001
7.280082e+003,9.518475e-001
7.307081e+003,1.085256e+000
7.334080e+003,9.215667e-001
7.361079e+003,9.375051e-001
7.388078e+003,1.167274e+000
7.415077e+003,1.234128e+000
7.442076e+003,1.121884e+000
7.469075e+003,1.074959e+000
7.496074e+003,1.156168e+000
7.523073e+003,1.116166e+000
7.550072e+003,1.123215e+000
7.577071e+003,8.902531e-001
7.604070e+003,1.643041e+000
7.631068e+003,1.336234e+000
7.658067e+003,1.040572e+000
7.685066e+003,1.275495e+000
7.712065e+003,1.945539e+000
7.739064e+003,1.016358e+000
7.766063e+003,1.041044e+000
7.793063e+003,1.165765e+000
7.820062e+003,1.473758e+000
7.847061e+003,9.485698e-001
7.874060e+003,1.336504e+000
7.901059e+003,8.548515e-001
7.928057e+003,1.599418e+000
7.955056e+003,1.149532e+000
7.982055e+003,8.132614e-001
8.009054e+003,1.214222e+000
8.036053e+003,7.516792e-001
8.063052e+003,8.329107e-001
8.090051e+003,1.107066e+000
8.117050e+003,6.000000e+000
8.144049e+003,6.000000e+000
8.171048e+003,7.269394e-001
8.198047e+003,9.839007e-001
8.225046e+003,7.992842e-001
8.252045e+003,1.629979e+000
8.279044e+003,7.308868e-001
8.306043e+003,8.722309e-001
8.333042e+003,9.238837e-001
8.360041e+003,5.838786e-001
8.387040e+003,9.349878e-001
8.414039e+003,1.110635e+000
8.441038e+003,9.450372e-001
8.468037e+003,1.171029e+000
8.495036e+003,5.781678e-001
8.500821e+003,3.708366e-001