Folder: olivine/olivine/FTIR (part 5)

File: SC1-2-800C-7hr-c02-copper-SiO-baseline.CSV
wavenumber (/cm),baseline value (/cm),baseline-subtracted absorbance (/cm),
1625.72,10.6466,8.88178e-15
1627.65,10.6281,-0.0266827
1629.58,10.6096,0.246519
1631.51,10.5911,0.469336
1633.44,10.5726,0.253252
1635.37,10.5541,-0.552077
1637.3,10.5357,-0.451402
1639.22,10.5172,0.0711624
1641.15,10.4987,0.299656
1643.08,10.4802,0.111379
1645.01,10.4617,-0.165753
1646.94,10.4433,-0.316711
1648.87,10.4248,-0.00928293
1650.8,10.4063,0.071762
1652.72,10.3878,0.222705
1654.65,10.3693,1.01365
1656.58,10.3509,0.733467
1658.51,10.3324,0.662106
1660.44,10.3139,0.742899
1662.37,10.2954,0.7185
1664.29,10.2769,0.622077
1666.22,10.2585,0.658045
1668.15,10.24,0.36525
1670.08,10.2215,0.359749
1672.01,10.203,0.494868
1673.94,10.1845,0.405737
1675.87,10.1661,0.319821
1677.79,10.1476,0.488817
1679.72,10.1291,0.331952
1681.65,10.1106,0.166686
1683.58,10.0921,0.360569
1685.51,10.0736,0.83051
1687.44,10.0552,0.837584
1689.37,10.0367,0.590564
1691.29,10.0182,0.484613
1693.22,9.99972,0.496493
1695.15,9.98125,0.343833
1697.08,9.96276,0.451003
1699.01,9.94429,0.69949
1700.94,9.9258,1.20791
1702.86,9.90733,1.25592
1704.79,9.88884,1.29747
1706.72,9.87036,1.28694
1708.65,9.85188,1.39472
1710.58,9.8334,1.37166
1712.51,9.81492,1.01289
1714.43,9.79644,0.418887
1716.36,9.77796,0.347566
1718.29,9.75948,1.06484
1720.22,9.74099,1.42301
1722.15,9.72252,1.24715
1724.08,9.70403,1.11666
1726.01,9.68556,1.33921
1727.93,9.66707,1.27481
1729.86,9.64859,0.977018
1731.79,9.63011,0.882651
1733.72,9.61163,1.08277
1735.65,9.59315,1.67933
1737.58,9.57467,1.63682
1739.51,9.55619,1.49103
1741.43,9.53771,1.38369
1743.36,9.51922,1.52627
1745.29,9.50075,1.60435
1747.22,9.48226,1.61595
1749.15,9.46379,0.991427
1751.08,9.4453,0.987159
1753.01,9.42683,1.43015
1754.93,9.40834,1.66438
1756.86,9.38986,1.74272
1758.79,9.37138,1.69988
1760.72,9.3529,1.61497
1762.65,9.33442,2.0121
1764.58,9.31594,2.04191
1766.51,9.29746,1.75859
1768.43,9.27898,1.89498
1770.36,9.26049,1.82081
1772.29,9.24202,1.54228
1774.22,9.22353,1.93962
1776.15,9.20506,1.67802
1778.08,9.18657,1.70446
1780,9.16809,1.9166
1781.93,9.14961,2.11156
1783.86,9.13113,2.03264
1785.79,9.11265,1.69006
1787.72,9.09417,1.68785
1789.65,9.07569,2.12106
1791.58,9.05721,2.02753
1793.5,9.03872,1.47447
1795.43,9.02025,1.38308
1797.36,9.00176,1.63233
1799.29,8.98329,1.7731
1801.22,8.9648,1.92594
1803.15,8.94633,1.99694
1805.08,8.92784,1.9948
1807,8.90936,2.01339
1808.93,8.89088,2.03404
1810.86,8.8724,2.11566
1812.79,8.85392,2.33583
1814.72,8.83544,2.32863
1816.65,8.81696,2.19473
1818.57,8.79848,2.21821
1820.5,8.77999,2.34332
1822.43,8.76152,2.18
1824.36,8.74303,2.15744
1826.29,8.72456,2.26025
1828.22,8.70607,2.15032
1830.14,8.68759,2.11867
1832.07,8.66911,2.716
1834,8.65063,2.96878
1835.93,8.63215,2.51006
1837.86,8.61367,2.50621
1839.79,8.59519,2.7274
1841.72,8.57671,2.76236
1843.64,8.55822,2.68928
1845.57,8.53975,2.69869
1847.5,8.52126,2.62952
1849.43,8.50279,2.79981
1851.36,8.4843,2.95718
1853.29,8.46583,3.05466
1855.22,8.44734,2.74941
1857.14,8.42886,2.54046
1859.07,8.41038,2.8623
1861,8.3919,3.05553
1862.93,8.37342,2.8539
1864.86,8.35494,3.11459
1866.79,8.33646,2.73258
1868.71,8.31798,2.15647
1870.64,8.29949,2.43681
1872.57,8.28102,2.64997
1874.5,8.26254,2.7294
1876.43,8.24406,2.73692
1878.36,8.22557,2.93958
1880.29,8.20709,3.1152
1882.21,8.18861,3.25873
1884.14,8.17013,3.3177
1886.07,8.15165,3.30652
1888,8.13317,3.16425
1889.93,8.11469,2.67345
1891.86,8.09621,2.63524
1893.79,8.07772,2.88675
1895.71,8.05925,3.01899
1897.64,8.04076,3.10575
1899.57,8.02229,3.17487
1901.5,8.0038,3.03835
1903.43,7.98532,3.1311
1905.36,7.96684,3.34792
1907.29,7.94836,3.26923
1909.21,7.92988,3.16308
1911.14,7.9114,3.34143
1913.07,7.89292,3.42131
1915,7.87444,3.26349
1916.93,7.85596,3.34237
1918.86,7.83748,3.57375
1920.79,7.81899,3.75228
1922.71,7.80052,3.38698
1924.64,7.78204,3.34371
1926.57,7.76356,3.30917
1928.5,7.74507,3.18641
1930.43,7.72659,3.57134
1932.36,7.70812,3.69599
1934.28,7.68963,3.33226
1936.21,7.67115,3.51041
1938.14,7.65267,3.92945
1940.07,7.63419,3.74444
1942,7.61571,3.72722
1943.93,7.59722,3.68517
1945.86,7.57875,3.71601
1947.78,7.56027,4.0217
1949.71,7.54179,4.04955
1951.64,7.5233,4.00015
1953.57,7.50482,3.80106
1955.5,7.48635,3.51802
1957.43,7.46786,3.73847
1959.35,7.44939,3.63698
1961.28,7.4309,3.61107
1963.21,7.41243,4.05604
1965.14,7.39394,3.9503
1967.07,7.37546,3.82835
1969,7.35698,4.05279
1970.92,7.3385,3.95691
1972.85,7.32002,3.65797
1974.78,7.30154,3.94581
1976.71,7.28306,4.21847
1978.64,7.26458,4.13176
1980.57,7.24609,3.89192
1982.5,7.22762,3.68546
1984.42,7.20913,3.66732
1986.35,7.19065,3.7089
1988.28,7.17217,3.90548
1990.21,7.15369,4.09879
1992.14,7.13521,4.05947
1994.07,7.11672,4.09352
1996,7.09825,4.19089
1997.92,7.07977,3.98231
1999.85,7.06129,3.83473
2001.78,7.04281,4.09806
2003.71,7.02432,4.18666
2005.64,7.00585,4.14758
2007.57,6.98736,4.23895
2009.49,6.96889,4.09881
2011.42,6.9504,3.79492
2013.35,6.93193,3.70831
2015.28,6.91344,3.83538
2017.21,6.89496,4.09382
2019.14,6.87648,4.13365
2021.07,6.858,4.08833
2022.99,6.83952,4.25051
2024.92,6.82104,4.10607
2026.85,6.80256,4.25007
2028.78,6.78408,4.52099
2030.71,6.76559,4.55968
2032.64,6.74712,4.48168
2034.57,6.72863,4.35039
2036.49,6.71016,4.47429
2038.42,6.69167,4.65726
2040.35,6.67319,4.45083
2042.28,6.65471,4.14967
2044.21,6.63623,4.16763
2046.14,6.61775,4.15643
2048.07,6.59927,4.35395
2049.99,6.58079,4.72115
2051.92,6.56231,4.36087
2053.85,6.54382,4.1
2055.78,6.52535,3.87791
2057.71,6.50686,3.69399
2059.64,6.48839,3.73967
2061.57,6.4699,3.41595
2063.49,6.45143,3.1133
2065.42,6.43294,2.85815
2067.35,6.41446,2.58971
2069.28,6.39598,2.42654
2071.21,6.3775,2.20608
2073.14,6.35902,1.97402
2075.06,6.34054,1.84242
2076.99,6.32205,1.71398
2078.92,6.30358,1.56987
2080.85,6.28509,1.50075
2082.78,6.26662,1.39983
2084.71,6.24813,1.24067
2086.64,6.22966,1.11414
2088.56,6.21117,1.03406
2090.49,6.19269,0.973558
2092.42,6.17421,0.901763
2094.35,6.15573,0.840076
2096.28,6.13725,0.745947
2098.21,6.11877,0.688521
2100.14,6.10029,0.652594
2102.06,6.08181,0.608566
2103.99,6.06332,0.604834
2105.92,6.04485,0.58686
2107.85,6.02636,0.536807
2109.78,6.00789,0.464926
2111.71,5.9894,0.41734
2113.63,5.97092,0.376112
2115.56,5.95244,0.360574
2117.49,5.93396,0.321691
2119.42,5.91548,0.300527
2121.35,5.897,0.310735
2123.28,5.87852,0.274661
2125.2,5.86004,0.243911
2127.13,5.84155,0.246461
2129.06,5.82308,0.219308
2130.99,5.80459,0.203623
2132.92,5.78612,0.18712
2134.85,5.76763,0.141773
2136.78,5.74916,0.110744
2138.7,5.73067,0.0835761
2140.63,5.71219,0.060649
2142.56,5.69371,0.0674142
2144.49,5.67523,0.0746196
2146.42,5.65675,0.0479571
2148.35,5.63827,0.0139363

File: SC1-2-800C-7hr-c02-copper.CSV
4.493401e+002,9.314233e-002
4.763391e+002,3.017780e-001
5.033381e+002,8.130140e-001
5.303371e+002,5.402598e-001
5.573361e+002,1.449325e+000
5.843350e+002,1.564487e+000
6.113340e+002,2.098312e+000
6.383330e+002,1.824858e+000
6.653320e+002,1.940738e+000
6.923309e+002,1.959384e+000
7.193300e+002,2.065691e+000
7.463289e+002,1.952916e+000
7.733279e+002,2.018238e+000
8.003269e+002,1.986958e+000
8.273259e+002,2.155038e+000
8.543248e+002,2.054435e+000
8.813238e+002,1.957111e+000
9.083228e+002,1.998083e+000
9.353218e+002,2.076924e+000
9.623207e+002,2.095402e+000
9.893197e+002,2.053981e+000
1.016319e+003,2.113125e+000
1.043318e+003,2.178214e+000
1.070317e+003,2.082618e+000
1.097316e+003,2.221406e+000
1.124315e+003,2.228903e+000
1.151314e+003,2.136347e+000
1.178313e+003,2.149808e+000
1.205312e+003,2.190321e+000
1.232311e+003,2.148881e+000
1.259310e+003,2.077341e+000
1.286308e+003,2.126871e+000
1.313307e+003,2.121894e+000
1.340307e+003,2.105837e+000
1.367305e+003,2.102114e+000
1.394304e+003,2.137899e+000
1.421303e+003,2.106886e+000
1.448302e+003,2.174381e+000
1.475301e+003,2.093042e+000
1.502300e+003,2.107622e+000
1.529299e+003,2.101605e+000
1.556298e+003,2.083227e+000
1.583297e+003,2.132436e+000
1.610296e+003,2.176460e+000
1.637295e+003,2.030149e+000
1.664294e+003,2.191355e+000
1.691293e+003,2.112964e+000
1.718292e+003,2.176575e+000
1.745291e+003,2.232131e+000
1.772290e+003,2.168657e+000
1.799289e+003,2.163133e+000
1.826288e+003,2.208328e+000
1.853287e+003,2.314319e+000
1.880286e+003,2.275104e+000
1.907285e+003,2.254388e+000
1.934284e+003,2.215667e+000
1.961283e+003,2.219640e+000
1.988282e+003,2.226700e+000
2.015281e+003,2.161636e+000
2.042280e+003,2.172629e+000
2.069279e+003,1.780498e+000
2.096278e+003,1.396784e+000
2.123277e+003,1.252343e+000
2.150276e+003,1.146806e+000
2.177275e+003,1.070069e+000
2.204274e+003,9.901262e-001
2.231273e+003,9.170308e-001
2.258272e+003,8.537396e-001
2.285271e+003,8.004415e-001
2.312270e+003,7.558181e-001
2.339269e+003,7.109900e-001
2.366268e+003,6.678433e-001
2.393267e+003,6.129698e-001
2.420266e+003,5.769156e-001
2.447265e+003,5.456795e-001
2.474264e+003,5.295759e-001
2.501262e+003,5.104342e-001
2.528261e+003,4.663712e-001
2.555260e+003,4.405268e-001
2.582260e+003,4.173279e-001
2.609259e+003,3.943704e-001
2.636258e+003,3.759688e-001
2.663256e+003,3.567828e-001
2.690255e+003,3.266712e-001
2.717254e+003,2.983429e-001
2.744253e+003,2.777740e-001
2.771252e+003,2.648735e-001
2.798251e+003,2.557602e-001
2.825250e+003,2.469616e-001
2.852249e+003,2.473069e-001
2.879248e+003,2.248794e-001
2.906247e+003,2.157414e-001
2.933246e+003,2.096686e-001
2.960245e+003,1.947095e-001
2.987244e+003,1.788599e-001
3.014243e+003,1.557088e-001
3.041242e+003,1.362536e-001
3.068241e+003,1.210074e-001
3.095240e+003,1.139129e-001
3.122239e+003,1.054946e-001
3.149238e+003,1.008386e-001
3.176237e+003,9.511311e-002
3.203236e+003,9.072576e-002
3.230235e+003,8.649905e-002
3.257234e+003,8.244006e-002
3.284233e+003,7.917567e-002
3.311232e+003,7.720402e-002
3.338231e+003,7.323180e-002
3.365230e+003,7.179497e-002
3.392229e+003,6.753913e-002
3.419228e+003,6.700122e-002
3.446227e+003,6.615775e-002
3.473226e+003,6.611902e-002
3.500225e+003,6.361692e-002
3.527224e+003,6.838253e-002
3.554223e+003,6.404367e-002
3.581222e+003,6.172990e-002
3.608221e+003,5.319603e-002
3.635220e+003,5.089385e-002
3.662219e+003,4.656380e-002
3.689218e+003,4.700302e-002
3.716217e+003,4.501173e-002
3.743216e+003,4.023692e-002
3.770215e+003,4.363837e-002
3.797214e+003,4.174339e-002
3.824213e+003,4.230177e-002
3.851211e+003,3.714720e-002
3.878210e+003,3.816129e-002
3.905209e+003,3.836086e-002
3.932208e+003,3.934097e-002
3.959208e+003,3.708974e-002
3.986206e+003,3.629084e-002
4.013205e+003,3.497674e-002
4.040204e+003,3.489389e-002
4.067203e+003,3.441172e-002
4.094202e+003,3.591839e-002
4.121201e+003,3.422691e-002
4.148200e+003,3.263178e-002
4.175199e+003,3.289833e-002
4.202198e+003,3.174132e-002
4.229197e+003,3.354212e-002
4.256196e+003,3.139351e-002
4.283195e+003,3.214766e-002
4.310194e+003,3.101321e-002
4.337193e+003,3.240081e-002
4.364192e+003,3.181853e-002
4.391191e+003,3.148759e-002
4.418190e+003,3.120214e-002
4.445189e+003,3.307690e-002
4.472188e+003,3.202230e-002
4.499187e+003,3.237290e-002
4.526186e+003,3.258739e-002
4.553185e+003,3.322564e-002
4.580184e+003,3.267336e-002
4.607183e+003,3.344209e-002
4.634182e+003,3.088775e-002
4.661181e+003,3.002808e-002
4.688180e+003,3.422723e-002
4.715179e+003,3.153031e-002
4.742178e+003,3.155738e-002
4.769177e+003,3.249243e-002
4.796176e+003,3.030554e-002
4.823175e+003,3.054528e-002
4.850174e+003,3.126662e-002
4.877173e+003,3.088109e-002
4.904172e+003,3.290652e-002
4.931171e+003,3.273503e-002
4.958169e+003,2.939632e-002
4.985168e+003,3.258624e-002
5.012167e+003,2.945471e-002
5.039167e+003,2.923457e-002
5.066166e+003,3.293783e-002
5.093165e+003,3.208508e-002
5.120164e+003,3.114718e-002
5.147163e+003,3.133660e-002
5.174162e+003,3.287564e-002
5.201161e+003,3.331753e-002
5.228160e+003,3.389785e-002
5.255158e+003,3.158083e-002
5.282157e+003,3.466763e-002
5.309156e+003,3.469979e-002
5.336155e+003,4.065643e-002
5.363154e+003,3.677333e-002
5.390153e+003,3.329661e-002
5.417152e+003,3.640288e-002
5.444151e+003,3.635946e-002
5.471150e+003,3.551163e-002
5.498149e+003,3.880282e-002
5.525148e+003,3.646468e-002
5.552147e+003,4.070610e-002
5.579146e+003,3.694664e-002
5.606145e+003,3.832655e-002
5.633144e+003,4.293516e-002
5.660143e+003,4.274939e-002
5.687142e+003,4.064555e-002
5.714141e+003,4.688023e-002
5.741140e+003,4.518487e-002
5.768139e+003,5.022600e-002
5.795138e+003,4.534991e-002
5.822137e+003,5.334593e-002
5.849136e+003,5.321348e-002
5.876135e+003,5.869997e-002
5.903134e+003,5.993814e-002
5.930133e+003,6.553654e-002
5.957132e+003,6.685498e-002
5.984131e+003,6.619754e-002
6.011130e+003,8.183289e-002
6.038129e+003,7.783689e-002
6.065128e+003,8.819941e-002
6.092127e+003,9.517147e-002
6.119126e+003,9.891161e-002
6.146125e+003,1.085390e-001
6.173124e+003,1.210295e-001
6.200123e+003,1.253525e-001
6.227122e+003,1.300582e-001
6.254121e+003,1.425389e-001
6.281120e+003,1.534412e-001
6.308119e+003,1.617746e-001
6.335118e+003,1.791852e-001
6.362117e+003,1.824532e-001
6.389116e+003,2.080559e-001
6.416115e+003,2.190811e-001
6.443113e+003,2.395502e-001
6.470112e+003,2.465897e-001
6.497111e+003,2.732147e-001
6.524110e+003,3.018031e-001
6.551109e+003,3.176364e-001
6.578108e+003,3.289991e-001
6.605107e+003,3.648114e-001
6.632106e+003,3.929492e-001
6.659105e+003,4.031412e-001
6.686104e+003,4.368269e-001
6.713104e+003,4.642369e-001
6.740102e+003,5.272025e-001
6.767101e+003,5.202949e-001
6.794100e+003,5.535749e-001
6.821099e+003,5.672579e-001
6.848098e+003,6.216466e-001
6.875097e+003,6.819678e-001
6.902096e+003,6.967257e-001
6.929095e+003,8.000566e-001
6.956094e+003,8.366042e-001
6.983093e+003,7.888768e-001
7.010092e+003,8.808765e-001
7.037091e+003,9.108970e-001
7.064090e+003,9.119141e-001
7.091089e+003,9.780650e-001
7.118088e+003,1.010499e+000
7.145087e+003,9.157004e-001
7.172086e+003,1.195819e+000
7.199085e+003,1.225676e+000
7.226084e+003,1.455874e+000
7.253083e+003,1.279498e+000
7.280082e+003,1.440270e+000
7.307081e+003,1.082532e+000
7.334080e+003,1.240824e+000
7.361079e+003,1.553680e+000
7.388078e+003,1.248256e+000
7.415077e+003,1.184040e+000
7.442076e+003,1.351018e+000
7.469075e+003,1.587390e+000
7.496074e+003,1.172426e+000
7.523073e+003,1.566445e+000
7.550072e+003,1.178162e+000
7.577071e+003,1.373744e+000
7.604070e+003,1.532680e+000
7.631068e+003,6.000000e+000
7.658067e+003,1.868057e+000
7.685066e+003,1.291391e+000
7.712065e+003,6.000000e+000
7.739064e+003,1.139692e+000
7.766063e+003,1.767312e+000
7.793063e+003,6.000000e+000
7.820062e+003,1.254122e+000
7.847061e+003,1.931068e+000
7.874060e+003,1.265096e+000
7.901059e+003,6.000000e+000
7.928057e+003,2.840674e+000
7.955056e+003,9.384574e-001
7.982055e+003,8.820351e-001
8.009054e+003,6.000000e+000
8.036053e+003,9.228327e-001
8.063052e+003,1.361107e+000
8.090051e+003,1.163592e+000
8.117050e+003,1.840467e+000
8.144049e+003,1.060396e+000
8.171048e+003,7.130381e-001
8.198047e+003,1.194384e+000
8.225046e+003,9.362549e-001
8.252045e+003,6.000000e+000
8.279044e+003,5.208293e-001
8.306043e+003,6.000000e+000
8.333042e+003,1.189029e+000
8.360041e+003,6.000000e+000
8.387040e+003,1.352944e+000
8.414039e+003,1.085440e+000
8.441038e+003,8.395261e-001
8.468037e+003,1.141469e+000
8.495036e+003,6.605991e-001
8.500821e+003,3.537179e-001

File: SC1-2-800C-7hr-c04-copper-baseline-high.CSV
wavenumber (/cm),baseline value (/cm),baseline-subtracted absorbance (/cm),
3149.24,0.344118,-0.000178967
3151.17,0.341783,0.00522389
3153.09,0.339459,0.00281446
3155.02,0.337144,-0.00137713
3156.95,0.334837,-0.000360112
3158.88,0.33254,0.000797509
3160.81,0.330253,0.0021467
3162.74,0.327975,0.00483969
3164.67,0.325707,0.00207163
3166.59,0.323448,-0.000660739
3168.52,0.321198,0.00026918
3170.45,0.318956,-0.000405375
3172.38,0.316726,0.000483904
3174.31,0.314503,0.00255335
3176.24,0.312291,0.000623622
3178.17,0.310088,0.00324168
3180.09,0.307894,0.0116835
3182.02,0.305711,0.0099727
3183.95,0.303535,0.00652308
3185.88,0.301369,0.00779598
3187.81,0.299213,0.0116035
3189.74,0.297065,0.0161658
3191.66,0.294928,0.013545
3193.59,0.292799,0.0129997
3195.52,0.290681,0.0137205
3197.45,0.288572,0.0112957
3199.38,0.286471,0.00779656
3201.31,0.284379,0.0086642
3203.24,0.282298,0.0166203
3205.16,0.280225,0.0182269
3207.09,0.278163,0.01622
3209.02,0.27611,0.0201914
3210.95,0.274065,0.0191946
3212.88,0.272031,0.0175754
3214.81,0.270005,0.0198116
3216.74,0.267988,0.019975
3218.66,0.265982,0.0207753
3220.59,0.263984,0.0247482
3222.52,0.261997,0.0268985
3224.45,0.260018,0.0280492
3226.38,0.258048,0.0249368
3228.31,0.256089,0.0198637
3230.24,0.254138,0.021229
3232.16,0.252196,0.0254641
3234.09,0.250264,0.0281951
3236.02,0.248341,0.0315673
3237.95,0.246429,0.0285921
3239.88,0.244525,0.0237383
3241.81,0.24263,0.0219204
3243.73,0.240745,0.0248672
3245.66,0.238869,0.0259909
3247.59,0.237002,0.026128
3249.52,0.235145,0.0274588
3251.45,0.233298,0.0306406
3253.38,0.231459,0.0304885
3255.3,0.22963,0.0277142
3257.23,0.22781,0.0299205
3259.16,0.226,0.0306155
3261.09,0.224199,0.0293879
3263.02,0.222406,0.0277921
3264.95,0.220625,0.029052
3266.88,0.218852,0.0313624
3268.8,0.217088,0.0322772
3270.73,0.215334,0.0298264
3272.66,0.213589,0.0279362
3274.59,0.211853,0.030465
3276.52,0.210127,0.036033
3278.45,0.208409,0.0366242
3280.38,0.206702,0.0354815
3282.3,0.205005,0.0392656
3284.23,0.203315,0.04134
3286.16,0.201636,0.0368325
3288.09,0.199966,0.0345269
3290.02,0.198304,0.03637
3291.95,0.196653,0.039244
3293.88,0.195012,0.0410809
3295.8,0.193379,0.0388861
3297.73,0.191756,0.0347659
3299.66,0.190141,0.0341642
3301.59,0.188537,0.0372566
3303.52,0.186941,0.0440054
3305.45,0.185355,0.0449651
3307.38,0.183779,0.0378602
3309.3,0.182212,0.0371984
3311.23,0.180653,0.0395712
3313.16,0.179105,0.0385726
3315.09,0.177566,0.0349616
3317.02,0.176036,0.0349438
3318.95,0.174515,0.0394017
3320.88,0.173004,0.0410242
3322.8,0.171502,0.0420282
3324.73,0.17001,0.0417901
3326.66,0.168527,0.0375007
3328.59,0.167053,0.0406711
3330.52,0.165588,0.0476404
3332.45,0.164134,0.0474419
3334.37,0.162688,0.0489912
3336.3,0.161252,0.0543512
3338.23,0.159824,0.0528074
3340.16,0.158407,0.0499864
3342.09,0.156998,0.0489501
3344.02,0.1556,0.0480439
3345.95,0.15421,0.0543607
3347.87,0.15283,0.0558732
3349.8,0.151459,0.0531867
3351.73,0.150097,0.0470971
3353.66,0.148745,0.044113
3355.59,0.147402,0.0507563
3357.52,0.146068,0.0561447
3359.44,0.144745,0.0527858
3361.37,0.14343,0.0534743
3363.3,0.142124,0.0585285
3365.23,0.140828,0.0581944
3367.16,0.139542,0.0546149
3369.09,0.138264,0.0530889
3371.01,0.136996,0.0510291
3372.94,0.135737,0.0509411
3374.87,0.134488,0.0532166
3376.8,0.133248,0.0569401
3378.73,0.132017,0.0613108
3380.66,0.130796,0.0588977
3382.59,0.129584,0.0543156
3384.51,0.128381,0.050631
3386.44,0.127188,0.0543571
3388.37,0.126004,0.057985
3390.3,0.12483,0.0542376
3392.23,0.123665,0.0521655
3394.16,0.122509,0.0560582
3396.09,0.121362,0.0583561
3398.01,0.120225,0.0613669
3399.94,0.119097,0.067601
3401.87,0.117979,0.0626267
3403.8,0.11687,0.0582613
3405.73,0.11577,0.0632696
3407.66,0.11468,0.0627721
3409.59,0.113599,0.0612888
3411.51,0.112527,0.0644879
3413.44,0.111465,0.0642955
3415.37,0.110412,0.0621752
3417.3,0.109368,0.0611224
3419.23,0.108334,0.0644653
3421.16,0.107309,0.0700774
3423.09,0.106293,0.0675335
3425.01,0.105288,0.0612801
3426.94,0.10429,0.0642857
3428.87,0.103303,0.0699518
3430.8,0.102325,0.0704181
3432.73,0.101356,0.0708221
3434.66,0.100396,0.0708734
3436.58,0.0994466,0.0725471
3438.51,0.0985056,0.0713956
3440.44,0.0975745,0.0667669
3442.37,0.0966522,0.0732747
3444.3,0.0957397,0.0773691
3446.23,0.0948361,0.0706895
3448.16,0.0939424,0.074298
3450.08,0.0930575,0.0765258
3452.01,0.0921824,0.0761279
3453.94,0.0913163,0.0763954
3455.87,0.0904599,0.0748435
3457.8,0.0896124,0.0767732
3459.73,0.0887748,0.079864
3461.66,0.087946,0.0829707
3463.58,0.087127,0.0864319
3465.51,0.086317,0.0799838
3467.44,0.0855167,0.0774408
3469.37,0.0847254,0.0828288
3471.3,0.0839438,0.0835591
3473.23,0.0831712,0.0821161
3475.15,0.0824083,0.0832842
3477.08,0.0816544,0.0838009
3479.01,0.0809102,0.0879316
3480.94,0.080175,0.0898571
3482.87,0.0794495,0.0936337
3484.8,0.078733,0.0895751
3486.72,0.0780262,0.0903696
3488.65,0.0773284,0.095413
3490.58,0.0766403,0.0944228
3492.51,0.0759612,0.0878666
3494.44,0.0752918,0.0844425
3496.37,0.0746314,0.0914757
3498.3,0.0739807,0.0988855
3500.22,0.073339,0.094396
3502.15,0.072707,0.0867807
3504.08,0.0720841,0.0856649
3506.01,0.0714708,0.0852358
3507.94,0.0708665,0.0810952
3509.87,0.0702719,0.0865957
3511.8,0.0696863,0.0998907
3513.72,0.0691104,0.102226
3515.65,0.0685436,0.101294
3517.58,0.0679864,0.108048
3519.51,0.0674382,0.111844
3521.44,0.0668997,0.117095
3523.37,0.0663703,0.126251
3525.3,0.0658505,0.124101
3527.22,0.0653397,0.117289
3529.15,0.0648386,0.11508
3531.08,0.0643466,0.112987
3533.01,0.0638642,0.109935
3534.94,0.0633909,0.103488
3536.87,0.0629271,0.0993231
3538.8,0.0624725,0.094906
3540.72,0.0620275,0.0925317
3542.65,0.0615916,0.0944442
3544.58,0.0611653,0.0974956
3546.51,0.0607481,0.0957184
3548.44,0.0603404,0.0885056
3550.37,0.059942,0.0785575
3552.29,0.059553,0.0793821
3554.22,0.0591732,0.0894474
3556.15,0.058803,0.0990521
3558.08,0.0584419,0.110808
3560.01,0.0580904,0.129128
3561.94,0.057748,0.144838
3563.86,0.0574152,0.148069
3565.79,0.0570915,0.1488
3567.72,0.0567774,0.175707
3569.65,0.0564724,0.189527
3571.58,0.056177,0.195248
3573.51,0.0558908,0.190066
3575.44,0.055614,0.165553
3577.36,0.0553465,0.133901
3579.29,0.0550884,0.105146
3581.22,0.0548396,0.0855669
3583.15,0.0546002,0.0750856
3585.08,0.0543701,0.064862
3587.01,0.0541495,0.0639841
3588.94,0.0539381,0.0798069
3590.86,0.0537361,0.0799506
3592.79,0.0535434,0.0811265
3594.72,0.0533601,0.10177
3596.65,0.0531861,0.132996
3598.58,0.0530216,0.140829
3600.51,0.0528663,0.122068
3602.43,0.0527204,0.0846961
3604.36,0.0525838,0.0549313
3606.29,0.0524567,0.0424009
3608.22,0.0523388,0.0396678
3610.15,0.0522303,0.0402358
3612.08,0.0521311,0.0337252
3614.01,0.0520414,0.0396758
3615.93,0.0519609,0.0366181
3617.86,0.0518898,0.033723
3619.79,0.0518281,0.0381183
3621.72,0.0517757,0.0361499
3623.65,0.0517326,0.0302233
3625.58,0.051699,0.0235437
3627.51,0.0516746,0.0101448
3629.43,0.0516596,0.0310742
3631.36,0.051654,0.0322041
3633.29,0.0516577,0.0229383
3635.22,0.0516708,0.0253737
3637.15,0.0516932,0.0219635
3639.08,0.051725,0.0222011
3641.01,0.0517661,0.0227645
3642.93,0.0518166,0.0211661
3644.86,0.0518764,0.0131613
3646.79,0.0519456,-0.00069282
3648.72,0.0520241,0.00363337
3650.65,0.052112,0.0260391
3652.58,0.0522092,0.0217523
3654.51,0.0523158,-0.0024426
3656.43,0.0524317,0.00328542
3658.36,0.052557,0.0121525
3660.29,0.0526916,0.0083866
3662.22,0.0528356,0.0083303
3664.15,0.0529889,0.00657748
3666.08,0.0531517,-0.00153179
3668,0.0533236,-0.00374398
3669.93,0.0535051,0.0167785
3671.86,0.0536958,0.0204306
3673.79,0.0538959,-0.0047651
3675.72,0.0541053,0.0160704
3677.65,0.0543242,0.0232853
3679.57,0.0545522,0.0136123
3681.5,0.0547898,0.0135297
3683.43,0.0550366,0.00762988
3685.36,0.0552928,0.000168291
3687.29,0.0555583,-0.00661078
3689.22,0.0558333,0.0155462
3691.15,0.0561175,0.0192543
3693.07,0.0564112,0.00574543
3695,0.056714,-0.00526517
3696.93,0.0570264,-0.00563079

File: SC1-2-800C-7hr-c04-copper-baseline-low.CSV
wavenumber (/cm),baseline value (/cm),baseline-subtracted absorbance (/cm),
3450.08,0.168945,0.000638494
3452.01,0.16799,0.000319994
3453.94,0.167035,0.000676304
3455.87,0.166081,-0.000777544
3457.8,0.165126,0.0012597
3459.73,0.164171,0.00446733
3461.66,0.163216,0.00770027
3463.58,0.162262,0.011297
3465.51,0.161307,0.00499372
3467.44,0.160353,0.00260491
3469.37,0.159398,0.00815656
3471.3,0.158443,0.00905979
3473.23,0.157488,0.00779904
3475.15,0.156534,0.00915875
3477.08,0.155579,0.00987648
3479.01,0.154624,0.0142175
3480.94,0.153669,0.0163627
3482.87,0.152715,0.0203683
3484.8,0.15176,0.0165482
3486.72,0.150805,0.0175904
3488.65,0.14985,0.0228909
3490.58,0.148896,0.0221671
3492.51,0.147941,0.0158868
3494.44,0.146987,0.0127478
3496.37,0.146032,0.0200755
3498.3,0.145077,0.0277891
3500.22,0.144122,0.0236129
3502.15,0.143168,0.0163201
3504.08,0.142213,0.0155363
3506.01,0.141258,0.0154483
3507.94,0.140303,0.0116584
3509.87,0.139349,0.0175189
3511.8,0.138394,0.0311832
3513.72,0.137439,0.0338976
3515.65,0.136484,0.0333533
3517.58,0.13553,0.0405048
3519.51,0.134575,0.0447075
3521.44,0.13362,0.0503741
3523.37,0.132666,0.0599561
3525.3,0.131711,0.0582405
3527.22,0.130756,0.0518726
3529.15,0.129802,0.0501165
3531.08,0.128847,0.0484873
3533.01,0.127892,0.0459067
3534.94,0.126937,0.0399421
3536.87,0.125983,0.0362675
3538.8,0.125028,0.0323507
3540.72,0.124073,0.0304859
3542.65,0.123118,0.0329175
3544.58,0.122164,0.036497
3546.51,0.121209,0.0352576
3548.44,0.120254,0.0285916
3550.37,0.119299,0.0192
3552.29,0.118345,0.0205902
3554.22,0.11739,0.0312307
3556.15,0.116436,0.0414196
3558.08,0.115481,0.0537692
3560.01,0.114526,0.0726923
3561.94,0.113571,0.089015
3563.86,0.112617,0.0928671
3565.79,0.111662,0.0942294
3567.72,0.110707,0.121777
3569.65,0.109752,0.136247
3571.58,0.108798,0.142627
3573.51,0.107843,0.138114
3575.44,0.106888,0.114279
3577.36,0.105933,0.083314
3579.29,0.104979,0.0552556
3581.22,0.104024,0.0363825
3583.15,0.103069,0.0266164
3585.08,0.102115,0.0171176
3587.01,0.10116,0.0169735
3588.94,0.100205,0.0335398
3590.86,0.0992506,0.0344361
3592.79,0.0982957,0.0363743
3594.72,0.0973412,0.0577891
3596.65,0.0963862,0.0897962
3598.58,0.0954317,0.0984186
3600.51,0.0944768,0.0804573
3602.43,0.0935223,0.0438942
3604.36,0.0925673,0.0149478
3606.29,0.0916129,0.00324466
3608.22,0.0906579,0.00134862
3610.15,0.0897034,0.00276266
3612.08,0.0887485,-0.00289218
3614.01,0.087794,0.00392314
3615.93,0.086839,0.00173999
3617.86,0.0858846,-0.000271745
3619.79,0.0849296,0.00501681
3621.72,0.0839751,0.00395047
3623.65,0.0830202,-0.00106423