Folder: olivine/olivine/FTIR (part 3)

File: SC1-2-800C-7hr-c00-copper-SiO-baseline.CSV
wavenumber (/cm),baseline value (/cm),baseline-subtracted absorbance (/cm),
1625.72,10.4878,3.55271e-15
1627.65,10.4699,-0.0698237
1629.58,10.4521,0.0707597
1631.51,10.4343,0.13354
1633.44,10.4164,-0.0664356
1635.37,10.3986,-0.648177
1637.3,10.3808,-0.554182
1639.22,10.3629,0.129436
1641.15,10.3451,0.257435
1643.08,10.3273,0.255862
1645.01,10.3094,0.193322
1646.94,10.2916,-0.288384
1648.87,10.2738,-0.198261
1650.8,10.2559,-0.0546709
1652.72,10.2381,-0.472017
1654.65,10.2202,-0.329858
1656.58,10.2024,0.120374
1658.51,10.1846,0.303669
1660.44,10.1667,0.571064
1662.37,10.1489,0.705733
1664.29,10.1311,0.842233
1666.22,10.1132,1.04397
1668.15,10.0954,0.747598
1670.08,10.0776,0.380003
1672.01,10.0597,0.645311
1673.94,10.0419,0.478272
1675.87,10.0241,0.467198
1677.79,10.0062,0.727042
1679.72,9.9884,0.540687
1681.65,9.97056,0.367932
1683.58,9.95273,0.433124
1685.51,9.93489,0.639647
1687.44,9.91706,0.550042
1689.37,9.89922,0.62893
1691.29,9.88139,0.79025
1693.22,9.86355,0.773838
1695.15,9.84572,0.665139
1697.08,9.82789,0.294982
1699.01,9.81006,0.0766952
1700.94,9.79222,0.00338924
1702.86,9.77439,0.408069
1704.79,9.75655,0.480365
1706.72,9.73872,0.614823
1708.65,9.72088,0.790471
1710.58,9.70305,0.661814
1712.51,9.68521,0.696321
1714.43,9.66738,0.877383
1716.36,9.64954,0.672469
1718.29,9.63171,0.303414
1720.22,9.61387,0.626833
1722.15,9.59604,0.750339
1724.08,9.5782,1.26825
1726.01,9.56037,1.77194
1727.93,9.54253,1.59232
1729.86,9.5247,1.46983
1731.79,9.50686,1.5438
1733.72,9.48903,1.24389
1735.65,9.47119,1.45045
1737.58,9.45336,1.08855
1739.51,9.43552,0.974572
1741.43,9.41769,1.37308
1743.36,9.39985,1.79699
1745.29,9.38202,1.92992
1747.22,9.36419,1.33268
1749.15,9.34636,1.2587
1751.08,9.32852,1.60934
1753.01,9.31069,1.45523
1754.93,9.29285,1.33469
1756.86,9.27502,1.5769
1758.79,9.25718,1.8134
1760.72,9.23935,1.46701
1762.65,9.22151,1.07239
1764.58,9.20368,1.11775
1766.51,9.18584,1.43648
1768.43,9.16801,1.56097
1770.36,9.15017,1.40649
1772.29,9.13234,1.25539
1774.22,9.1145,1.42305
1776.15,9.09667,1.51737
1778.08,9.07883,1.57257
1780,9.061,1.58716
1781.93,9.04316,1.8385
1783.86,9.02533,1.85055
1785.79,9.00749,1.95742
1787.72,8.98966,2.0395
1789.65,8.97182,2.10909
1791.58,8.95399,1.68141
1793.5,8.93615,1.49444
1795.43,8.91832,1.69024
1797.36,8.90048,1.80187
1799.29,8.88265,1.88108
1801.22,8.86482,1.84842
1803.15,8.84699,2.06289
1805.08,8.82915,2.12227
1807,8.81132,2.10131
1808.93,8.79348,2.04329
1810.86,8.77565,2.06596
1812.79,8.75781,2.28666
1814.72,8.73998,2.55281
1816.65,8.72214,2.75766
1818.57,8.70431,2.74665
1820.5,8.68647,2.34937
1822.43,8.66864,2.05459
1824.36,8.6508,2.11482
1826.29,8.63297,2.19563
1828.22,8.61513,1.89639
1830.14,8.5973,1.7603
1832.07,8.57946,2.03369
1834,8.56163,2.36762
1835.93,8.54379,2.56183
1837.86,8.52596,2.47759
1839.79,8.50812,2.62567
1841.72,8.49029,2.72532
1843.64,8.47245,2.11448
1845.57,8.45462,1.92492
1847.5,8.43678,2.25676
1849.43,8.41895,2.67803
1851.36,8.40111,2.47056
1853.29,8.38328,2.36193
1855.22,8.36545,2.4254
1857.14,8.34762,2.66824
1859.07,8.32978,2.67106
1861,8.31195,2.48947
1862.93,8.29411,2.63446
1864.86,8.27628,2.70888
1866.79,8.25845,2.57983
1868.71,8.24061,2.3222
1870.64,8.22277,2.33372
1872.57,8.20494,2.57532
1874.5,8.18711,2.58672
1876.43,8.16927,2.43672
1878.36,8.15143,2.55923
1880.29,8.1336,2.83777
1882.21,8.11576,2.87898
1884.14,8.09793,2.85428
1886.07,8.08009,3.06001
1888,8.06226,3.04501
1889.93,8.04442,2.97657
1891.86,8.02659,2.91697
1893.79,8.00875,2.91159
1895.71,7.99092,3.05514
1897.64,7.97308,3.32469
1899.57,7.95525,3.11624
1901.5,7.93741,2.76822
1903.43,7.91958,2.72125
1905.36,7.90174,2.79913
1907.29,7.88391,2.8921
1909.21,7.86608,2.84409
1911.14,7.84825,3.00739
1913.07,7.83041,3.21425
1915,7.81258,3.15875
1916.93,7.79475,2.75964
1918.86,7.77691,2.70041
1920.79,7.75907,2.80001
1922.71,7.74124,2.72697
1924.64,7.72341,2.86469
1926.57,7.70557,2.88933
1928.5,7.68773,2.98935
1930.43,7.6699,3.20929
1932.36,7.65207,3.461
1934.28,7.63423,3.50102
1936.21,7.61639,3.60626
1938.14,7.59856,3.69284
1940.07,7.58073,3.76938
1942,7.56289,3.40013
1943.93,7.54505,3.40974
1945.86,7.52722,3.39713
1947.78,7.50939,3.41175
1949.71,7.49155,3.7742
1951.64,7.47371,3.78167
1953.57,7.45588,3.47564
1955.5,7.43805,3.47729
1957.43,7.42021,3.48184
1959.35,7.40238,3.81283
1961.28,7.38455,3.93717
1963.21,7.36672,3.80339
1965.14,7.34888,3.72221
1967.07,7.33105,3.60832
1969,7.31321,3.45247
1970.92,7.29538,3.59763
1972.85,7.27754,3.62424
1974.78,7.25971,3.67947
1976.71,7.24187,4.01474
1978.64,7.22404,3.86492
1980.57,7.2062,3.8826
1982.5,7.18837,3.88592
1984.42,7.17053,4.14179
1986.35,7.15269,4.21721
1988.28,7.13486,3.92877
1990.21,7.11703,3.62927
1992.14,7.09919,3.70377
1994.07,7.08135,3.63157
1996,7.06352,3.6895
1997.92,7.04569,4.02121
1999.85,7.02785,4.25029
2001.78,7.01002,4.36839
2003.71,6.99218,4.33073
2005.64,6.97435,4.46819
2007.57,6.95651,4.52086
2009.49,6.93868,4.59103
2011.42,6.92084,4.50503
2013.35,6.90301,4.30554
2015.28,6.88518,4.13651
2017.21,6.86735,4.33504
2019.14,6.84951,4.27257
2021.07,6.83168,4.04613
2022.99,6.81384,4.18327
2024.92,6.79601,4.31815
2026.85,6.77817,4.20227
2028.78,6.76034,4.44376
2030.71,6.7425,4.43242
2032.64,6.72467,4.27464
2034.57,6.70683,4.2388
2036.49,6.689,4.31989
2038.42,6.67116,4.65424
2040.35,6.65333,4.40207
2042.28,6.63549,4.23196
2044.21,6.61766,4.38945
2046.14,6.59982,4.54579
2048.07,6.58199,4.0806
2049.99,6.56415,3.927
2051.92,6.54632,4.07363
2053.85,6.52848,3.97486
2055.78,6.51065,3.69449
2057.71,6.49281,3.56576
2059.64,6.47498,3.31017
2061.57,6.45714,2.99003
2063.49,6.43931,2.86064
2065.42,6.42147,2.61792
2067.35,6.40364,2.36952
2069.28,6.38581,2.27513
2071.21,6.36798,2.17069
2073.14,6.35014,1.98717
2075.06,6.33231,1.87406
2076.99,6.31447,1.74694
2078.92,6.29664,1.55222
2080.85,6.2788,1.47333
2082.78,6.26097,1.36561
2084.71,6.24313,1.20837
2086.64,6.2253,1.08256
2088.56,6.20746,0.990062
2090.49,6.18963,0.957659
2092.42,6.17179,0.927611
2094.35,6.15396,0.860371
2096.28,6.13612,0.760673
2098.21,6.11829,0.644565
2100.14,6.10045,0.601209
2102.06,6.08262,0.568286
2103.99,6.06478,0.498452
2105.92,6.04695,0.468642
2107.85,6.02911,0.475287
2109.78,6.01128,0.466012
2111.71,5.99344,0.43797
2113.63,5.97561,0.397314
2115.56,5.95777,0.34234
2117.49,5.93994,0.282473
2119.42,5.92211,0.25285
2121.35,5.90427,0.250903
2123.28,5.88644,0.237432
2125.2,5.86861,0.207552
2127.13,5.85077,0.181284
2129.06,5.83294,0.146142
2130.99,5.8151,0.122664
2132.92,5.79727,0.0628183
2134.85,5.77943,0.0567366
2136.78,5.7616,0.110365
2138.7,5.74376,0.110545
2140.63,5.72593,0.0806493
2142.56,5.70809,0.0704435
2144.49,5.69026,0.0559982
2146.42,5.67242,0.0388632
2148.35,5.65459,0.017888

File: SC1-2-800C-7hr-c00-copper.CSV
4.493401e+002,6.000000e+000
4.763391e+002,6.000000e+000
5.033381e+002,7.635773e-001
5.303371e+002,1.328472e+000
5.573361e+002,6.000000e+000
5.843350e+002,2.061935e+000
6.113340e+002,2.048062e+000
6.383330e+002,1.935013e+000
6.653320e+002,1.935057e+000
6.923309e+002,2.094086e+000
7.193300e+002,2.034264e+000
7.463289e+002,1.966943e+000
7.733279e+002,2.052891e+000
8.003269e+002,2.006789e+000
8.273259e+002,1.992168e+000
8.543248e+002,2.080344e+000
8.813238e+002,2.034100e+000
9.083228e+002,2.000278e+000
9.353218e+002,2.022627e+000
9.623207e+002,2.063677e+000
9.893197e+002,2.068151e+000
1.016319e+003,2.039594e+000
1.043318e+003,2.114970e+000
1.070317e+003,2.182673e+000
1.097316e+003,2.099423e+000
1.124315e+003,2.294237e+000
1.151314e+003,2.115525e+000
1.178313e+003,2.149684e+000
1.205312e+003,2.151398e+000
1.232311e+003,2.283967e+000
1.259310e+003,2.149878e+000
1.286308e+003,2.159760e+000
1.313307e+003,2.121162e+000
1.340307e+003,2.096388e+000
1.367305e+003,2.163032e+000
1.394304e+003,2.043339e+000
1.421303e+003,2.101553e+000
1.448302e+003,2.063838e+000
1.475301e+003,2.091586e+000
1.502300e+003,2.073600e+000
1.529299e+003,2.109408e+000
1.556298e+003,2.057870e+000
1.583297e+003,2.175633e+000
1.610296e+003,2.141344e+000
1.637295e+003,2.022224e+000
1.664294e+003,2.249116e+000
1.691293e+003,2.189428e+000
1.718292e+003,2.043700e+000
1.745291e+003,2.316118e+000
1.772290e+003,2.133253e+000
1.799289e+003,2.207649e+000
1.826288e+003,2.220483e+000
1.853287e+003,2.203984e+000
1.880286e+003,2.248731e+000
1.907285e+003,2.210079e+000
1.934284e+003,2.281157e+000
1.961283e+003,2.318052e+000
1.988282e+003,2.266986e+000
2.015281e+003,2.258688e+000
2.042280e+003,2.228171e+000
2.069279e+003,1.791590e+000
2.096278e+003,1.442536e+000
2.123277e+003,1.289605e+000
2.150276e+003,1.193224e+000
2.177275e+003,1.098538e+000
2.204274e+003,1.020037e+000
2.231273e+003,9.537929e-001
2.258272e+003,8.944523e-001
2.285271e+003,8.364075e-001
2.312270e+003,7.952632e-001
2.339269e+003,7.559453e-001
2.366268e+003,7.246526e-001
2.393267e+003,6.528166e-001
2.420266e+003,6.163061e-001
2.447265e+003,5.876533e-001
2.474264e+003,5.681760e-001
2.501262e+003,5.506549e-001
2.528261e+003,5.061782e-001
2.555260e+003,4.821301e-001
2.582260e+003,4.581392e-001
2.609259e+003,4.346960e-001
2.636258e+003,4.169884e-001
2.663256e+003,3.987746e-001
2.690255e+003,3.682052e-001
2.717254e+003,3.399432e-001
2.744253e+003,3.186519e-001
2.771252e+003,3.073264e-001
2.798251e+003,2.980682e-001
2.825250e+003,2.881689e-001
2.852249e+003,2.879894e-001
2.879248e+003,2.657351e-001
2.906247e+003,2.574683e-001
2.933246e+003,2.508905e-001
2.960245e+003,2.356539e-001
2.987244e+003,2.198445e-001
3.014243e+003,1.982849e-001
3.041242e+003,1.783087e-001
3.068241e+003,1.647366e-001
3.095240e+003,1.555248e-001
3.122239e+003,1.480188e-001
3.149238e+003,1.420663e-001
3.176237e+003,1.364632e-001
3.203236e+003,1.336223e-001
3.230235e+003,1.287267e-001
3.257234e+003,1.262204e-001
3.284233e+003,1.211032e-001
3.311232e+003,1.188911e-001
3.338231e+003,1.150228e-001
3.365230e+003,1.135381e-001
3.392229e+003,1.097184e-001
3.419228e+003,1.084370e-001
3.446227e+003,1.055483e-001
3.473226e+003,1.077788e-001
3.500225e+003,1.067609e-001
3.527224e+003,1.126793e-001
3.554223e+003,1.073518e-001
3.581222e+003,1.037828e-001
3.608221e+003,9.749518e-002
3.635220e+003,9.404782e-002
3.662219e+003,8.965365e-002
3.689218e+003,9.205299e-002
3.716217e+003,8.855160e-002
3.743216e+003,8.564119e-002
3.770215e+003,8.679467e-002
3.797214e+003,8.744330e-002
3.824213e+003,8.688276e-002
3.851211e+003,8.302197e-002
3.878210e+003,8.077072e-002
3.905209e+003,8.727402e-002
3.932208e+003,8.364587e-002
3.959208e+003,8.040373e-002
3.986206e+003,7.894540e-002
4.013205e+003,7.715451e-002
4.040204e+003,7.921002e-002
4.067203e+003,7.810921e-002
4.094202e+003,7.874916e-002
4.121201e+003,7.714323e-002
4.148200e+003,7.625876e-002
4.175199e+003,7.702871e-002
4.202198e+003,7.753805e-002
4.229197e+003,7.620928e-002
4.256196e+003,7.664582e-002
4.283195e+003,7.630198e-002
4.310194e+003,7.499950e-002
4.337193e+003,7.472987e-002
4.364192e+003,7.606762e-002
4.391191e+003,7.732250e-002
4.418190e+003,7.651567e-002
4.445189e+003,7.635340e-002
4.472188e+003,7.444134e-002
4.499187e+003,7.656396e-002
4.526186e+003,7.600679e-002
4.553185e+003,7.702737e-002
4.580184e+003,7.690102e-002
4.607183e+003,7.658567e-002
4.634182e+003,7.630967e-002
4.661181e+003,7.563970e-002
4.688180e+003,7.700051e-002
4.715179e+003,7.393460e-002
4.742178e+003,7.491776e-002
4.769177e+003,7.663950e-002
4.796176e+003,7.739317e-002
4.823175e+003,7.587817e-002
4.850174e+003,7.674573e-002
4.877173e+003,7.693168e-002
4.904172e+003,7.657392e-002
4.931171e+003,7.833222e-002
4.958169e+003,7.395939e-002
4.985168e+003,7.674845e-002
5.012167e+003,7.827309e-002
5.039167e+003,7.735655e-002
5.066166e+003,7.729637e-002
5.093165e+003,7.946025e-002
5.120164e+003,7.519212e-002
5.147163e+003,7.770294e-002
5.174162e+003,7.528593e-002
5.201161e+003,7.751911e-002
5.228160e+003,8.128917e-002
5.255158e+003,8.229875e-002
5.282157e+003,7.836480e-002
5.309156e+003,7.931366e-002
5.336155e+003,8.519306e-002
5.363154e+003,8.285877e-002
5.390153e+003,8.258229e-002
5.417152e+003,8.168702e-002
5.444151e+003,8.488625e-002
5.471150e+003,8.215296e-002
5.498149e+003,8.751540e-002
5.525148e+003,8.283816e-002
5.552147e+003,8.325381e-002
5.579146e+003,8.455880e-002
5.606145e+003,8.409381e-002
5.633144e+003,8.955851e-002
5.660143e+003,8.935116e-002
5.687142e+003,8.813816e-002
5.714141e+003,9.567574e-002
5.741140e+003,9.325341e-002
5.768139e+003,9.502815e-002
5.795138e+003,9.831750e-002
5.822137e+003,9.842979e-002
5.849136e+003,1.065938e-001
5.876135e+003,1.067820e-001
5.903134e+003,1.086126e-001
5.930133e+003,1.174203e-001
5.957132e+003,1.138697e-001
5.984131e+003,1.130093e-001
6.011130e+003,1.241198e-001
6.038129e+003,1.274272e-001
6.065128e+003,1.268320e-001
6.092127e+003,1.450227e-001
6.119126e+003,1.483480e-001
6.146125e+003,1.598769e-001
6.173124e+003,1.730626e-001
6.200123e+003,1.755889e-001
6.227122e+003,1.807595e-001
6.254121e+003,1.866648e-001
6.281120e+003,2.075177e-001
6.308119e+003,2.143547e-001
6.335118e+003,2.263103e-001
6.362117e+003,2.358031e-001
6.389116e+003,2.429785e-001
6.416115e+003,2.735206e-001
6.443113e+003,2.923360e-001
6.470112e+003,2.980284e-001
6.497111e+003,3.243894e-001
6.524110e+003,3.450125e-001
6.551109e+003,3.630786e-001
6.578108e+003,3.983565e-001
6.605107e+003,4.086342e-001
6.632106e+003,4.559171e-001
6.659105e+003,4.733008e-001
6.686104e+003,4.915354e-001
6.713104e+003,5.218549e-001
6.740102e+003,5.639954e-001
6.767101e+003,5.756544e-001
6.794100e+003,6.181622e-001
6.821099e+003,6.118479e-001
6.848098e+003,6.771324e-001
6.875097e+003,7.739547e-001
6.902096e+003,7.272168e-001
6.929095e+003,8.019202e-001
6.956094e+003,8.226100e-001
6.983093e+003,9.436435e-001
7.010092e+003,9.199678e-001
7.037091e+003,1.062975e+000
7.064090e+003,9.170828e-001
7.091089e+003,9.538710e-001
7.118088e+003,1.062109e+000
7.145087e+003,1.176057e+000
7.172086e+003,1.039118e+000
7.199085e+003,1.181913e+000
7.226084e+003,1.090298e+000
7.253083e+003,1.454205e+000
7.280082e+003,1.145403e+000
7.307081e+003,1.355097e+000
7.334080e+003,1.411117e+000
7.361079e+003,1.396501e+000
7.388078e+003,1.202067e+000
7.415077e+003,1.246042e+000
7.442076e+003,1.582042e+000
7.469075e+003,1.061882e+000
7.496074e+003,1.440009e+000
7.523073e+003,1.276132e+000
7.550072e+003,1.494517e+000
7.577071e+003,1.119212e+000
7.604070e+003,1.774246e+000
7.631068e+003,1.634165e+000
7.658067e+003,6.000000e+000
7.685066e+003,6.000000e+000
7.712065e+003,1.040564e+000
7.739064e+003,1.292889e+000
7.766063e+003,1.233011e+000
7.793063e+003,1.251676e+000
7.820062e+003,1.313408e+000
7.847061e+003,2.044143e+000
7.874060e+003,6.000000e+000
7.901059e+003,6.000000e+000
7.928057e+003,1.043435e+000
7.955056e+003,6.000000e+000
7.982055e+003,1.122295e+000
8.009054e+003,1.198144e+000
8.036053e+003,2.009676e+000
8.063052e+003,6.000000e+000
8.090051e+003,9.411728e-001
8.117050e+003,6.000000e+000
8.144049e+003,2.076179e+000
8.171048e+003,1.493368e+000
8.198047e+003,6.000000e+000
8.225046e+003,6.000000e+000
8.252045e+003,6.000000e+000
8.279044e+003,1.662493e+000
8.306043e+003,1.500615e+000
8.333042e+003,6.000000e+000
8.360041e+003,1.130242e+000
8.387040e+003,1.853941e+000
8.414039e+003,7.599202e-001
8.441038e+003,6.000000e+000
8.468037e+003,6.000000e+000
8.495036e+003,6.027659e-001
8.500821e+003,6.000000e+000

File: SC1-2-800C-7hr-c02-copper-baseline-high.CSV
wavenumber (/cm),baseline value (/cm),baseline-subtracted absorbance (/cm),
3149.24,0.333366,1.75579e-05
3151.17,0.331074,0.00549528
3153.09,0.328792,0.00505476
3155.02,0.326519,0.00130063
3156.95,0.324254,0.00186007
3158.88,0.321999,0.00311788
3160.81,0.319754,-2.46689e-06
3162.74,0.317518,-0.000533052
3164.67,0.315292,-0.000750887
3166.59,0.313075,0.00276119
3168.52,0.310867,0.0048431
3170.45,0.308668,0.00215188
3172.38,0.306479,0.000177053
3174.31,0.304299,0.00118814
3176.24,0.302129,0.00231824
3178.17,0.299967,0.00331411
3180.09,0.297816,0.00267098
3182.02,0.295674,-0.00107908
3183.95,0.29354,0.0045124
3185.88,0.291416,0.0116207
3187.81,0.289302,0.00934093
3189.74,0.287196,0.004068
3191.66,0.285101,0.00555917
3193.59,0.283014,0.0105146
3195.52,0.280938,0.011312
3197.45,0.278871,0.00847135
3199.38,0.276812,0.00714403
3201.31,0.274763,0.00622274
3203.24,0.272724,0.00954915
3205.16,0.270693,0.0131138
3207.09,0.268673,0.0150591
3209.02,0.266662,0.0159212
3210.95,0.264659,0.0166058
3212.88,0.262667,0.0175229
3214.81,0.260683,0.0180586
3216.74,0.258708,0.0153192
3218.66,0.256744,0.0173724
3220.59,0.254788,0.0199819
3222.52,0.252842,0.0208402
3224.45,0.250906,0.024985
3226.38,0.248978,0.0226319
3228.31,0.247061,0.0178091
3230.24,0.245152,0.0157591
3232.16,0.243252,0.0171066
3234.09,0.241362,0.020915
3236.02,0.239481,0.0247141
3237.95,0.23761,0.0252324
3239.88,0.235749,0.0219168
3241.81,0.233896,0.0201232
3243.73,0.232053,0.0232348
3245.66,0.230219,0.0271219
3247.59,0.228394,0.0231309
3249.52,0.226579,0.0214059
3251.45,0.224774,0.0210965
3253.38,0.222977,0.0205426
3255.3,0.22119,0.0196326
3257.23,0.219412,0.0209839
3259.16,0.217644,0.0256217
3261.09,0.215885,0.0258997
3263.02,0.214135,0.022875
3264.95,0.212395,0.0249327
3266.88,0.210664,0.0309971
3268.8,0.208942,0.0321166
3270.73,0.20723,0.0255874
3272.66,0.205527,0.0266811
3274.59,0.203833,0.0303968
3276.52,0.202149,0.0327221
3278.45,0.200474,0.0329836
3280.38,0.198809,0.030026
3282.3,0.197153,0.0271679
3284.23,0.195506,0.0283919
3286.16,0.193869,0.0328096
3288.09,0.19224,0.0347964
3290.02,0.190621,0.0303036
3291.95,0.189012,0.0288136
3293.88,0.187412,0.0347433
3295.8,0.185821,0.0354369
3297.73,0.18424,0.034437
3299.66,0.182668,0.0341909
3301.59,0.181106,0.0378544
3303.52,0.179552,0.0453447
3305.45,0.178008,0.0425665
3307.38,0.176473,0.0378546
3309.3,0.174949,0.0365422
3311.23,0.173432,0.0405006
3313.16,0.171926,0.041415
3315.09,0.170428,0.0341159
3317.02,0.168941,0.0306864
3318.95,0.167462,0.0367354
3320.88,0.165993,0.0366693
3322.8,0.164533,0.0373718
3324.73,0.163083,0.0397476
3326.66,0.161642,0.0387153
3328.59,0.16021,0.0393929
3330.52,0.158788,0.0443463
3332.45,0.157375,0.0460821
3334.37,0.155971,0.0440843
3336.3,0.154577,0.0452042
3338.23,0.153191,0.0406655
3340.16,0.151816,0.0418935
3342.09,0.15045,0.044109
3344.02,0.149093,0.0424035
3345.95,0.147745,0.0438548
3347.87,0.146407,0.047384
3349.8,0.145078,0.0467031
3351.73,0.143759,0.0403739
3353.66,0.142448,0.0432377
3355.59,0.141148,0.0502329
3357.52,0.139856,0.0522947
3359.44,0.138574,0.0506156
3361.37,0.137301,0.0510496
3363.3,0.136037,0.0553166
3365.23,0.134784,0.0518116
3367.16,0.133539,0.0489751
3369.09,0.132303,0.0507806
3371.01,0.131078,0.0492477
3372.94,0.129861,0.049142
3374.87,0.128654,0.0517272
3376.8,0.127455,0.0513367
3378.73,0.126267,0.0526935
3380.66,0.125088,0.0508141
3382.59,0.123918,0.0470855
3384.51,0.122757,0.0484368
3386.44,0.121606,0.0552583
3388.37,0.120464,0.0591872
3390.3,0.119332,0.0519743
3392.23,0.118208,0.0468774
3394.16,0.117095,0.0501826
3396.09,0.11599,0.0510691
3398.01,0.114895,0.0568564
3399.94,0.113809,0.0675599
3401.87,0.112733,0.0662536
3403.8,0.111666,0.0601169
3405.73,0.110608,0.0575593
3407.66,0.10956,0.0561549
3409.59,0.108521,0.0562386
3411.51,0.107491,0.0607996
3413.44,0.106471,0.0616286
3415.37,0.10546,0.0597565
3417.3,0.104459,0.0600613
3419.23,0.103466,0.058901
3421.16,0.102483,0.0602506
3423.09,0.10151,0.0550969
3425.01,0.100546,0.0558275
3426.94,0.0995907,0.0617966
3428.87,0.0986454,0.0660293
3430.8,0.0977091,0.0668899
3432.73,0.0967825,0.0646774
3434.66,0.0958648,0.0643811
3436.58,0.094957,0.066363
3438.51,0.094058,0.0674649
3440.44,0.0931689,0.0675007
3442.37,0.0922886,0.0689806
3444.3,0.0914182,0.0667519
3446.23,0.0905566,0.0675475
3448.16,0.0897049,0.0715784
3450.08,0.0888621,0.0680347
3452.01,0.088029,0.068585
3453.94,0.0872049,0.0660505
3455.87,0.0863905,0.0660893
3457.8,0.0855851,0.0673897
3459.73,0.0847894,0.0734909
3461.66,0.0840027,0.080703
3463.58,0.0832258,0.0816098
3465.51,0.0824577,0.0727058
3467.44,0.0816995,0.0716477
3469.37,0.0809502,0.0760427
3471.3,0.0802106,0.0802444
3473.23,0.07948,0.0784284
3475.15,0.0787591,0.0772533
3477.08,0.0780473,0.0766064
3479.01,0.0773451,0.0765768
3480.94,0.0766519,0.0823263
3482.87,0.0759684,0.0840474
3484.8,0.075294,0.0840784
3486.72,0.0746292,0.0892402
3488.65,0.0739734,0.0863022
3490.58,0.0733273,0.0832089
3492.51,0.0726903,0.0800868
3494.44,0.0720629,0.0761714
3496.37,0.0714445,0.0748835
3498.3,0.0708359,0.0803769
3500.22,0.0702362,0.0750264
3502.15,0.0696462,0.0679062
3504.08,0.0690653,0.077579
3506.01,0.068494,0.0860039
3507.94,0.0679318,0.0890958
3509.87,0.0673792,0.0941504
3511.8,0.0668356,0.098291
3513.72,0.0663018,0.100784
3515.65,0.0657769,0.0984818
3517.58,0.0652617,0.100718
3519.51,0.0647556,0.108057
3521.44,0.0642591,0.109023
3523.37,0.0637717,0.11553
3525.3,0.0632939,0.116256
3527.22,0.0628252,0.106523
3529.15,0.0623661,0.106901
3531.08,0.0619161,0.108952
3533.01,0.0614757,0.100632
3534.94,0.0610445,0.091685
3536.87,0.0606227,0.0939556
3538.8,0.0602102,0.0905977
3540.72,0.0598072,0.0877757
3542.65,0.0594133,0.0845124
3544.58,0.059029,0.0844015
3546.51,0.0586538,0.0876943
3548.44,0.0582882,0.0825215
3550.37,0.0579318,0.0770281
3552.29,0.0575848,0.0816407
3554.22,0.0572471,0.0901723
3556.15,0.0569189,0.0943402
3558.08,0.0565998,0.104435
3560.01,0.0562903,0.121947
3561.94,0.05599,0.136591
3563.86,0.0556992,0.138128
3565.79,0.0554175,0.140566
3567.72,0.0551454,0.161097
3569.65,0.0548825,0.17583
3571.58,0.0546291,0.181868
3573.51,0.0543848,0.176156
3575.44,0.0541501,0.15481
3577.36,0.0539246,0.123283
3579.29,0.0537086,0.0976582
3581.22,0.0535018,0.0822237
3583.15,0.0533044,0.0708691
3585.08,0.0531163,0.0601091
3587.01,0.0529377,0.0689107
3588.94,0.0527683,0.0910829
3590.86,0.0526084,0.0859481
3592.79,0.0524577,0.0860321
3594.72,0.0523165,0.0988207
3596.65,0.0521845,0.118993
3598.58,0.052062,0.130682
3600.51,0.0519487,0.112984
3602.43,0.0518448,0.0785985
3604.36,0.0517503,0.0565844
3606.29,0.0516651,0.0410843
3608.22,0.0515893,0.0410053
3610.15,0.0515228,0.0467201
3612.08,0.0514657,0.0428625
3614.01,0.0514179,0.0436709
3615.93,0.0513795,0.0343552
3617.86,0.0513504,0.0328581
3619.79,0.0513307,0.0428669
3621.72,0.0513204,0.0402334
3623.65,0.0513193,0.0333297
3625.58,0.0513277,0.0295995
3627.51,0.0513454,0.0275147
3629.43,0.0513724,0.0529588
3631.36,0.0514088,0.0394087
3633.29,0.0514545,0.0251786
3635.22,0.0515096,0.0294496
3637.15,0.0515741,0.0219168
3639.08,0.0516479,0.0162423
3641.01,0.051731,0.0183486
3642.93,0.0518235,0.0201986
3644.86,0.0519253,0.00937897
3646.79,0.0520366,0.00368086
3648.72,0.0521571,0.023273
3650.65,0.052287,0.0450821
3652.58,0.0524262,0.0335011
3654.51,0.0525749,0.0110093
3656.43,0.0527328,0.0130916
3658.36,0.0529001,0.0122924
3660.29,0.0530768,0.00523594
3662.22,0.0532628,0.00581199
3664.15,0.0534581,0.00379747
3666.08,0.0536629,-0.00206584
3668,0.0538769,-0.00678895
3669.93,0.0541004,0.00546535
3671.86,0.0543331,0.0129633
3673.79,0.0545752,-0.00560005
3675.72,0.0548266,0.0139892
3677.65,0.0550875,0.0207661
3679.57,0.0553576,0.0125896
3681.5,0.0556372,0.0071306
3683.43,0.055926,0.00188006
3685.36,0.0562243,7.33734e-05
3687.29,0.0565318,-0.00905895
3689.22,0.0568488,0.00444584
3691.15,0.057175,0.0165119
3693.07,0.0575107,0.0131911
3695,0.0578556,0.00331305
3696.93,0.05821,0.00105754

File: SC1-2-800C-7hr-c02-copper-baseline-low.CSV
wavenumber (/cm),baseline value (/cm),baseline-subtracted absorbance (/cm),
3450.08,0.15886,-0.00196305
3452.01,0.158054,-0.00143958
3453.94,0.157247,-0.0039915
3455.87,0.156441,-0.0039607
3457.8,0.155634,-0.00265904
3459.73,0.154828,0.00345278
3461.66,0.154021,0.0106849
3463.58,0.153215,0.011621
3465.51,0.152408,0.00275571
3467.44,0.151601,0.00174567
3469.37,0.150795,0.00619809
3471.3,0.149988,0.0104665
3473.23,0.149182,0.00872665
3475.15,0.148375,0.00763696
3477.08,0.147569,0.00708494
3479.01,0.146762,0.00715946
3480.94,0.145956,0.0130225
3482.87,0.145149,0.0148664
3484.8,0.144343,0.0150296
3486.72,0.143536,0.020333
3488.65,0.14273,0.0175459
3490.58,0.141923,0.0146128
3492.51,0.141117,0.0116604
3494.44,0.14031,0.00792391
3496.37,0.139504,0.00682438
3498.3,0.138697,0.0125153
3500.22,0.137891,0.00737194
3502.15,0.137084,0.000468038
3504.08,0.136278,0.0103666
3506.01,0.135471,0.0190266
3507.94,0.134665,0.0223629
3509.87,0.133858,0.0276713
3511.8,0.133052,0.032075
3513.72,0.132245,0.0348406
3515.65,0.131439,0.0328202
3517.58,0.130632,0.0353479
3519.51,0.129826,0.0429874
3521.44,0.129019,0.044263
3523.37,0.128213,0.0510889
3525.3,0.127406,0.0521433
3527.22,0.1266,0.0427488
3529.15,0.125793,0.0434741
3531.08,0.124987,0.0458813
3533.01,0.12418,0.0379276
3534.94,0.123374,0.0293559
3536.87,0.122567,0.0320111
3538.8,0.121761,0.0290473
3540.72,0.120954,0.0266287
3542.65,0.120148,0.0237781
3544.58,0.119341,0.0240892
3546.51,0.118535,0.0278136
3548.44,0.117728,0.0230815
3550.37,0.116921,0.0180383
3552.29,0.116115,0.0231104
3554.22,0.115308,0.032111
3556.15,0.114502,0.0367568
3558.08,0.113695,0.0473392
3560.01,0.112889,0.0653481
3561.94,0.112082,0.0804989
3563.86,0.111276,0.0825511
3565.79,0.110469,0.0855139
3567.72,0.109663,0.106579
3569.65,0.108856,0.121856
3571.58,0.10805,0.128447
3573.51,0.107243,0.123297
3575.44,0.106437,0.102523
3577.36,0.10563,0.0715769
3579.29,0.104824,0.0465426
3581.22,0.104017,0.0317081
3583.15,0.103211,0.0209625
3585.08,0.102404,0.0108211
3587.01,0.101598,0.0202504
3588.94,0.100791,0.0430599
3590.86,0.0999851,0.0385714
3592.79,0.0991783,0.0393115
3594.72,0.098372,0.0527651
3596.65,0.0975653,0.0736119
3598.58,0.096759,0.0859848
3600.51,0.0959523,0.0689807
3602.43,0.095146,0.0352973
3604.36,0.0943393,0.0139954
3606.29,0.093533,-0.000783586
3608.22,0.0927263,-0.000131677
3610.15,0.09192,0.00632291
3612.08,0.0911133,0.00321489
3614.01,0.090307,0.00478187
3615.93,0.0895003,-0.00376555
3617.86,0.088694,-0.00448543
3619.79,0.0878872,0.00631042
3621.72,0.087081,0.00447282
3623.65,0.0862742,-0.00162519