Folder: olivine/olivine/FTIR (part 6)

File: SC1-2-800C-7hr-c04-copper-baseline.CSV
baseline wavenumber (cm-1),baseline absorbance (cm-1),baseline-subtracted absorbance (cm-1)
3199.379,0.294267,1.38778e-14
3201.308,0.292441,0.000602418
3203.236,0.290623,0.00829571
3205.165,0.288811,0.00964172
3207.093,0.287006,0.00737674
3209.021,0.285209,0.0110923
3210.95,0.283418,0.0098419
3212.878,0.281635,0.00797143
3214.807,0.279858,0.00995869
3216.736,0.278088,0.00987538
3218.664,0.276326,0.0104315
3220.593,0.27457,0.0141623
3222.521,0.272822,0.016073
3224.449,0.271081,0.0169863
3226.378,0.269346,0.0136389
3228.306,0.267619,0.00833312
3230.235,0.265899,0.00946797
3232.164,0.264185,0.0134749
3234.092,0.262479,0.0159802
3236.021,0.26078,0.0191289
3237.949,0.259088,0.0159327
3239.877,0.257403,0.01086
3241.806,0.255725,0.00882561
3243.734,0.254054,0.0115583
3245.663,0.25239,0.01247
3247.592,0.250732,0.0123976
3249.52,0.249083,0.0135212
3251.448,0.24744,0.016498
3253.377,0.245804,0.0161433
3255.305,0.244176,0.0131688
3257.234,0.242554,0.0151771
3259.162,0.240939,0.0156765
3261.091,0.239331,0.0142555
3263.02,0.23773,0.0124687
3264.948,0.236137,0.0135399
3266.876,0.234551,0.015664
3268.805,0.232971,0.0163946
3270.733,0.231398,0.0137621
3272.662,0.229832,0.0116924
3274.591,0.228274,0.0140441
3276.519,0.226723,0.0194373
3278.448,0.225178,0.0198559
3280.376,0.223641,0.0185432
3282.304,0.222111,0.0221594
3284.233,0.220587,0.0240682
3286.161,0.219071,0.0193976
3288.09,0.217562,0.016931
3290.019,0.216059,0.0186155
3291.947,0.214564,0.0213333
3293.875,0.213076,0.0230163
3295.804,0.211595,0.0206698
3297.732,0.210121,0.0164003
3299.661,0.208654,0.0156515
3301.589,0.207194,0.0185993
3303.518,0.205741,0.0252057
3305.447,0.204295,0.0260253
3307.375,0.202856,0.0187827
3309.303,0.201425,0.0179856
3311.232,0.199999,0.0202253
3313.16,0.198582,0.0190959
3315.089,0.197171,0.0153563
3317.017,0.195767,0.0152124
3318.946,0.19437,0.0195465
3320.875,0.19298,0.0210474
3322.803,0.191598,0.0219322
3324.731,0.190223,0.0215773
3326.66,0.188854,0.0171733
3328.588,0.187493,0.0202315
3330.517,0.186138,0.0270908
3332.445,0.184791,0.0267847
3334.374,0.18345,0.0282287
3336.302,0.182117,0.0334857
3338.231,0.18079,0.0318412
3340.159,0.179472,0.0289219
3342.088,0.178159,0.0277895
3344.016,0.176854,0.0267897
3345.945,0.175555,0.033015
3347.873,0.174265,0.0344384
3349.802,0.17298,0.0316651
3351.73,0.171703,0.0254911
3353.659,0.170433,0.0224249
3355.587,0.16917,0.0289884
3357.516,0.167914,0.0342992
3359.444,0.166665,0.0308652
3361.373,0.165423,0.0314808
3363.302,0.164188,0.0364644
3365.23,0.16296,0.0360621
3367.158,0.16174,0.0324167
3369.087,0.160526,0.030827
3371.015,0.159319,0.028706
3372.944,0.158119,0.028559
3374.872,0.156927,0.0307779
3376.801,0.155741,0.0344471
3378.729,0.154563,0.0387657
3380.658,0.153391,0.0363029
3382.586,0.152226,0.0316734
3384.515,0.151069,0.0279437
3386.443,0.149918,0.0316271
3388.372,0.148775,0.0352146
3390.3,0.147639,0.0314291
3392.229,0.146509,0.0293212
3394.157,0.145387,0.0331804
3396.086,0.144271,0.0354471
3398.014,0.143163,0.0384291
3399.943,0.142062,0.0446367
3401.871,0.140968,0.0396381
3403.8,0.13988,0.0352508
3405.728,0.1388,0.0402396
3407.657,0.137727,0.0397247
3409.585,0.136661,0.0382265
3411.514,0.135602,0.041413
3413.442,0.13455,0.0412103
3415.371,0.133505,0.039082
3417.299,0.132467,0.0380235
3419.228,0.131436,0.041363
3421.156,0.130413,0.046974
3423.085,0.129396,0.0444315
3425.013,0.128386,0.0381816
3426.942,0.127383,0.0411931
3428.87,0.126388,0.0468674
3430.799,0.125399,0.0473442
3432.727,0.124417,0.0477611
3434.656,0.123442,0.0478275
3436.584,0.122475,0.0495188
3438.513,0.121514,0.0483871
3440.441,0.120561,0.0437805
3442.37,0.119614,0.0503127
3444.298,0.118675,0.0544339
3446.227,0.117742,0.0477834
3448.155,0.116817,0.0514232
3450.084,0.115899,0.0536847
3452.012,0.114988,0.0533228
3453.941,0.114083,0.0536287
3455.869,0.113186,0.0521174
3457.798,0.112296,0.0540901
3459.726,0.111413,0.0572262
3461.655,0.110536,0.0603805
3463.583,0.109667,0.0638916
3465.512,0.108805,0.0574957
3467.44,0.10795,0.0550072
3469.369,0.107102,0.0604521
3471.297,0.106261,0.0612416
3473.226,0.105427,0.0598601
3475.154,0.1046,0.061092
3477.083,0.10378,0.0616748
3479.011,0.102968,0.065874
3480.94,0.102162,0.0678703
3482.868,0.101363,0.0717199
3484.797,0.100571,0.0677367
3486.725,0.0997868,0.068609
3488.654,0.099009,0.0737324
3490.582,0.0982385,0.0728245
3492.511,0.0974748,0.0663531
3494.439,0.0967184,0.0630159
3496.368,0.0959687,0.0701384
3498.296,0.0952264,0.0776398
3500.225,0.0944908,0.0732443
3502.153,0.0937625,0.0657252
3504.082,0.093041,0.064708
3506.01,0.0923268,0.0643797
3507.939,0.0916193,0.0603424
3509.867,0.0909192,0.0659484
3511.796,0.0902258,0.0793512
3513.724,0.0895398,0.0817971
3515.653,0.0888604,0.0809772
3517.581,0.0881885,0.0878462
3519.51,0.0875232,0.0917592
3521.438,0.0868653,0.0971293
3523.367,0.0862141,0.106408
3525.295,0.0855703,0.104381
3527.224,0.0849331,0.0976955
3529.152,0.0843034,0.0956148
3531.081,0.0836803,0.0936537
3533.009,0.0830646,0.0907342
3534.938,0.0824556,0.0844236
3536.866,0.081854,0.0803963
3538.795,0.0812591,0.0761194
3540.723,0.0806715,0.0738877
3542.652,0.0800907,0.0759452
3544.58,0.0795171,0.0791437
3546.509,0.0789504,0.0775161
3548.437,0.0783909,0.0704551
3550.366,0.0778382,0.0606612
3552.294,0.0772929,0.0616423
3554.223,0.0767542,0.0718664
3556.151,0.0762229,0.0816322
3558.08,0.0756984,0.0935514
3560.008,0.0751811,0.112037
3561.937,0.0746707,0.127915
3563.865,0.0741675,0.131316
3565.794,0.0736711,0.13222
3567.722,0.073182,0.159303
3569.651,0.0726996,0.1733
3571.579,0.0722246,0.1792
3573.508,0.0717563,0.1742
3575.436,0.0712953,0.149872
3577.365,0.0708412,0.118406
3579.293,0.0703942,0.0898403
3581.222,0.0699541,0.0704524
3583.15,0.0695213,0.0601646
3585.079,0.0690952,0.0501369
3587.007,0.0686764,0.0494571
3588.936,0.0682645,0.0654804
3590.864,0.0678598,0.065827
3592.793,0.0674619,0.0672081
3594.721,0.0670712,0.088059
3596.65,0.0666874,0.119495
3598.578,0.0663108,0.12754
3600.507,0.065941,0.108993
3602.435,0.0655785,0.071838
3604.364,0.0652228,0.0422923
3606.292,0.0648744,0.0299832
3608.221,0.0645328,0.0274738
3610.149,0.0641984,0.0282677
3612.078,0.0638708,0.0219855
3614.006,0.0635505,0.0281666
3615.935,0.063237,0.025342
3617.863,0.0629308,0.022682
3619.792,0.0626314,0.027315
3621.72,0.0623392,0.0255864
3623.649,0.0620539,0.0199021
3625.577,0.0617757,0.0134669
3627.506,0.0615045,0.000314965
3629.434,0.0612404,0.0214934
3631.363,0.0609833,0.0228749
3633.291,0.0607333,0.0138628
3635.22,0.0604902,0.0165543
3637.148,0.0602542,0.0134025
3639.077,0.0600252,0.0139009
3641.005,0.0598033,0.0147273
3642.934,0.0595884,0.0133943
3644.862,0.0593806,0.00565712
3646.791,0.0591797,-0.00792692
3648.719,0.0589859,-0.00332848
3650.648,0.0587991,0.0193519
3652.576,0.0586195,0.0153421
3654.505,0.0584467,-0.00857352
3656.433,0.0582811,-0.00256399
3658.362,0.0581224,0.00658704
3660.29,0.0579709,0.00310731
3662.219,0.0578263,0.00333962
3664.147,0.0576888,0.00187758
3666.076,0.0575583,-0.00593844
3668.004,0.0574349,-0.00785522
3669.933,0.0573185,0.0129651
3671.861,0.0572091,0.0169173
3673.79,0.0571067,-0.00797591
3675.718,0.0570114,0.0131642
3677.647,0.0569231,0.0206863
3679.575,0.0568419,0.0113227
3681.504,0.0567677,0.0115518
3683.432,0.0567005,0.00596592
3685.361,0.0566404,-0.00117925
3687.289,0.0565873,-0.00763975
3689.218,0.0565412,0.0148383
3691.146,0.0565022,0.0188696
3693.075,0.0564702,0.0056864
3695.003,0.0564452,-0.00499636
3696.932,0.0564273,-0.00503166
3698.86,0.0564164,-0.00502076

File: SC1-2-800C-7hr-c04-copper-high-baseline.CSV
baseline wavenumber (cm-1),baseline absorbance (cm-1),baseline-subtracted absorbance (cm-1)
3399.943,0.186698,3.33067e-16
3401.871,0.185802,-0.0051963
3403.8,0.184906,-0.00977438
3405.728,0.184009,-0.00496931
3407.657,0.183113,-0.00566085
3409.585,0.182216,-0.0073287
3411.514,0.18132,-0.00430488
3413.442,0.180424,-0.00466311
3415.371,0.179527,-0.00693997
3417.299,0.178631,-0.00813996
3419.228,0.177734,-0.0049349
3421.156,0.176838,0.000548673
3423.085,0.175941,-0.00211431
3425.013,0.175045,-0.00847755
3426.942,0.174148,-0.00557235
3428.87,0.173252,2.65181e-06
3430.799,0.172356,0.000387176
3432.727,0.171459,0.000718825
3434.656,0.170563,0.00070706
3436.584,0.169667,0.00232714
3438.513,0.16877,0.00113131
3440.441,0.167874,-0.00353239
3442.37,0.166977,0.00294978
3444.298,0.166081,0.00702791
3446.227,0.165184,0.000341429
3448.155,0.164288,0.00395226
3450.084,0.163391,0.00619189
3452.012,0.162495,0.00581511
3453.941,0.161599,0.00611311
3455.869,0.160702,0.00460098
3457.798,0.159806,0.00657991
3459.726,0.15891,0.00972926
3461.655,0.158013,0.0129039
3463.583,0.157117,0.0164423
3465.512,0.15622,0.0100807
3467.44,0.155324,0.00763366
3469.369,0.154427,0.013127
3471.297,0.153531,0.0139719
3473.226,0.152634,0.0126529
3475.154,0.151738,0.0139543
3477.083,0.150841,0.0146137
3479.011,0.149945,0.0188965
3480.94,0.149049,0.0209834
3482.868,0.148152,0.0249307
3484.797,0.147256,0.0210522
3486.725,0.14636,0.0220362
3488.654,0.145463,0.0272784
3490.582,0.144567,0.0264963
3492.511,0.14367,0.0201577
3494.439,0.142774,0.0169604
3496.368,0.141877,0.0242298
3498.296,0.140981,0.0318851
3500.225,0.140084,0.0276506
3502.153,0.139188,0.0202995
3504.082,0.138292,0.0194574
3506.01,0.137395,0.0193112
3507.939,0.136499,0.0154629
3509.867,0.135603,0.0212651
3511.796,0.134706,0.0348711
3513.724,0.13381,0.0375272
3515.653,0.132913,0.0369246
3517.581,0.132017,0.0440178
3519.51,0.13112,0.0481622
3521.438,0.130224,0.0537705
3523.367,0.129327,0.0632942
3525.295,0.128431,0.0615204
3527.224,0.127535,0.0550941
3529.152,0.126638,0.0532798
3531.081,0.125742,0.0515923
3533.009,0.124845,0.0489534
3534.938,0.123949,0.0429304
3536.866,0.123053,0.0391976
3538.795,0.122156,0.0352225
3540.723,0.12126,0.0332994
3542.652,0.120363,0.0356727
3544.58,0.119467,0.0391939
3546.509,0.11857,0.0378961
3548.437,0.117674,0.0311719
3550.366,0.116777,0.021722
3552.294,0.115881,0.0230539
3554.223,0.114985,0.0336361
3556.151,0.114088,0.0437667
3558.08,0.113192,0.056058
3560.008,0.112296,0.0749228
3561.937,0.111399,0.0911872
3563.865,0.110503,0.094981
3565.794,0.109606,0.096285
3567.722,0.10871,0.123775
3569.651,0.107813,0.138186
3571.579,0.106917,0.144508
3573.508,0.10602,0.139936
3575.436,0.105124,0.116043
3577.365,0.104228,0.0850198
3579.293,0.103331,0.0569031
3581.222,0.102435,0.0379718
3583.15,0.101539,0.0281474
3585.079,0.100642,0.0185903
3587.007,0.0997457,0.0183879
3588.936,0.098849,0.0348959
3590.864,0.0979528,0.0357339
3592.793,0.0970562,0.0376137
3594.721,0.09616,0.0589703
3596.65,0.0952633,0.0909191
3598.578,0.0943671,0.0994832
3600.507,0.0934705,0.0814636
3602.435,0.0925743,0.0448423
3604.364,0.0916776,0.0158374
3606.292,0.0907815,0.00407608
3608.221,0.0898848,0.00212173
3610.149,0.0889886,0.00347749
3612.078,0.088092,-0.00223567
3614.006,0.0871958,0.00452137
3615.935,0.0862991,0.00227992
3617.863,0.0854029,0.000209896
3619.792,0.0845063,0.00544014
3621.72,0.0836101,0.00431552
3623.649,0.0827134,-0.000757489
3625.577,0.0818172,-0.00657461
3627.506,0.0809206,-0.0191011
3629.434,0.0800244,0.00270941
3631.363,0.0791277,0.00473041
3633.291,0.0782316,-0.00363554
3635.22,0.0773349,-0.00029045
3637.148,0.0764387,-0.00278202
3639.077,0.0755421,-0.001616
3641.005,0.0746459,-0.000115245
3642.934,0.0737492,-0.000766564
3644.862,0.072853,-0.00781534
3646.791,0.0719564,-0.0207036
3648.719,0.0710602,-0.0154027
3650.648,0.0701635,0.00798755
3652.576,0.0692673,0.00469418
3654.505,0.0683707,-0.0184975
3656.433,0.0674745,-0.0117574
3658.362,0.0665778,-0.00186834
3660.29,0.0656816,-0.00460343
3662.219,0.064785,-0.00361906
3664.147,0.0638888,-0.00432239
3666.076,0.0629921,-0.0113723
3668.004,0.062096,-0.0125163
3669.933,0.0611993,0.00908424
3671.861,0.0603031,0.0138233
3673.79,0.0594065,-0.0102756
3675.718,0.0585103,0.0116654
3677.647,0.0576136,0.0199959
3679.575,0.0567174,0.0114472
3681.504,0.0558208,0.0124987
3683.432,0.0549246,0.00774188
3685.361,0.0540279,0.00143321
3687.289,0.0531317,-0.00418419
3689.218,0.0522351,0.0191445
3691.146,0.0513389,0.0240329
3693.075,0.0504422,0.0117143
3695.003,0.049546,0.00190281
3696.932,0.0486494,0.00274624
3698.86,0.0477532,0.00364243

File: SC1-2-800C-7hr-c04-copper-low-baseline.CSV
baseline wavenumber (cm-1),baseline absorbance (cm-1),baseline-subtracted absorbance (cm-1)
3199.38,0.294267,1.56541e-14
3201.308,0.292077,0.000966898
3203.236,0.289897,0.00902167
3205.165,0.287726,0.0107265
3207.093,0.285566,0.0088174
3209.02,0.283415,0.012886
3210.95,0.281274,0.011986
3212.88,0.279143,0.0104629
3214.81,0.277022,0.012795
3216.736,0.27491,0.0130536
3218.664,0.272809,0.0139487
3220.593,0.270716,0.0180159
3222.52,0.268635,0.0202599
3224.449,0.266564,0.0215038
3226.38,0.264501,0.0184842
3228.31,0.262449,0.0135034
3230.235,0.260406,0.0149605
3232.164,0.258373,0.0192869
3234.092,0.256351,0.0221086
3236.02,0.254337,0.0255711
3237.949,0.252335,0.0226858
3239.877,0.250342,0.0179212
3241.81,0.248358,0.0161921
3243.73,0.246385,0.0192272
3245.663,0.244421,0.0204387
3247.592,0.242467,0.0206632
3249.52,0.240523,0.0220808
3251.448,0.23859,0.0253487
3253.377,0.236665,0.0252825
3255.305,0.234751,0.0225935
3257.23,0.232846,0.0248846
3259.16,0.230952,0.025664
3261.091,0.229066,0.0245202
3263.02,0.227191,0.0230078
3264.948,0.225326,0.0243504
3266.88,0.223471,0.0267432
3268.805,0.221625,0.0277398
3270.73,0.21979,0.0253704
3272.66,0.217964,0.023561
3274.591,0.216147,0.0261702
3276.52,0.214342,0.031818
3278.448,0.212545,0.0324885
3280.38,0.210759,0.0314247
3282.304,0.208983,0.0352871
3284.23,0.207216,0.0374393
3286.16,0.20546,0.0330093
3288.09,0.203712,0.0307805
3290.02,0.201975,0.0327
3291.947,0.200248,0.0356499
3293.875,0.198531,0.0375621
3295.804,0.196823,0.0354422
3297.732,0.195125,0.0313963
3299.66,0.193437,0.0308685
3301.59,0.191759,0.0340343
3303.518,0.190091,0.040856
3305.447,0.188432,0.0418881
3307.375,0.186784,0.0348551
3309.303,0.185145,0.0342647
3311.232,0.183516,0.0367084
3313.16,0.181898,0.0357802
3315.09,0.180288,0.0322391
3317.02,0.178689,0.0322906
3318.946,0.177099,0.0368175
3320.875,0.175519,0.0385084
3322.803,0.17395,0.0395803
3324.73,0.172391,0.0394096
3326.66,0.17084,0.0351871
3328.59,0.1693,0.038424
3330.52,0.16777,0.0454592
3332.445,0.16625,0.0453261
3334.37,0.164738,0.0469404
3336.302,0.163238,0.0523648
3338.23,0.161747,0.050885
3340.159,0.160266,0.0481273
3342.09,0.158794,0.047154
3344.02,0.157333,0.0463103
3345.945,0.155881,0.052689
3347.873,0.15444,0.0542629
3349.802,0.153008,0.0516374
3351.73,0.151586,0.0456083
3353.659,0.150174,0.0426842
3355.587,0.148772,0.0493869
3357.52,0.147379,0.0548343
3359.44,0.145997,0.0515338
3361.373,0.144624,0.0522804
3363.302,0.14326,0.057392
3365.23,0.141908,0.0571149
3367.158,0.140565,0.0535919
3369.087,0.139231,0.0521218
3371.015,0.137908,0.0501175
3372.94,0.136594,0.0500845
3374.87,0.13529,0.0524145
3376.801,0.133996,0.056192
3378.73,0.132712,0.0606162
3380.658,0.131437,0.0582561
3382.586,0.130173,0.0537265
3384.515,0.128918,0.0500939
3386.44,0.127674,0.0538715
3388.37,0.126439,0.0575504
3390.3,0.125214,0.0538536
3392.23,0.123999,0.0518315
3394.157,0.122794,0.0557737
3396.086,0.121598,0.0581206
3398.014,0.120412,0.0611799
3399.94,0.119236,0.0674621
3401.87,0.118071,0.0625353
3403.8,0.116914,0.058217
3405.728,0.115768,0.0632718
3407.657,0.114632,0.0628203
3409.585,0.113505,0.0613826
3411.514,0.112388,0.0646267
3413.442,0.111282,0.0644789
3415.37,0.110184,0.0624027
3417.3,0.109097,0.0613934
3419.228,0.10802,0.0647794
3421.156,0.106953,0.070434
3423.085,0.105895,0.0679323
3425.013,0.104847,0.0617203
3426.942,0.103809,0.0647671
3428.87,0.102781,0.0704737
3430.8,0.101763,0.0709801
3432.73,0.100755,0.0714237
3434.656,0.0997558,0.071514
3436.58,0.0987674,0.0732264
3438.513,0.0977883,0.072113
3440.441,0.0968195,0.0675218
3442.37,0.0958601,0.0740667
3444.298,0.0949111,0.0781977
3446.23,0.0939714,0.0715543
3448.155,0.093042,0.0751983
3450.08,0.0921221,0.0774612
3452.012,0.0912124,0.0770979
3453.941,0.0903121,0.0773996
3455.869,0.0894221,0.0758812
3457.798,0.0885415,0.0778441
3459.73,0.0876713,0.0809675
3461.655,0.0868104,0.0841064
3463.583,0.0859598,0.0875992
3465.512,0.0851186,0.0811822
3467.44,0.0842877,0.0786698
3469.369,0.0834662,0.084088
3471.297,0.082655,0.0848479
3473.23,0.0818532,0.083434
3475.15,0.0810617,0.0846308
3477.083,0.0802796,0.0851756
3479.011,0.0795078,0.089334
3480.94,0.0787454,0.0912866
3482.868,0.0779933,0.0950899
3484.797,0.0772506,0.0910574
3486.725,0.0765182,0.0918776
3488.65,0.0757952,0.0969462
3490.58,0.0750824,0.0959806
3492.511,0.0743792,0.0894486
3494.44,0.0736861,0.0860482
3496.368,0.0730025,0.0931046
3498.296,0.0723292,0.100537
3500.225,0.0716653,0.0960697
3502.153,0.0710116,0.0884761
3504.08,0.0703674,0.0873815
3506.01,0.0697335,0.0869731
3507.94,0.069109,0.0828527
3509.867,0.0684947,0.0883729
3511.796,0.0678899,0.101687
3513.724,0.0672953,0.104042
3515.653,0.0667103,0.103127
3517.58,0.0661354,0.109899
3519.51,0.06557,0.113712
3521.438,0.0650148,0.11898
3523.367,0.0644691,0.128152
3525.295,0.0639336,0.126018
3527.224,0.0634076,0.119221
3529.152,0.0628918,0.117026
3531.08,0.0623855,0.114948
3533.009,0.0618894,0.111909
3534.938,0.0614028,0.105476
3536.866,0.0609264,0.101324
3538.795,0.0604595,0.096919
3540.723,0.0600028,0.0945564
3542.652,0.0595556,0.0964802
3544.58,0.0591185,0.0995423
3546.509,0.0586911,0.0977753
3548.437,0.0582737,0.0905723
3550.366,0.057866,0.0806335
3552.29,0.0574683,0.0814669
3554.223,0.0570802,0.0915405
3556.151,0.0567022,0.101153
3558.08,0.0563339,0.112916
3560.008,0.0559756,0.131243
3561.937,0.0556269,0.146959
3563.865,0.0552883,0.150195
3565.79,0.0549594,0.150932
3567.722,0.0546405,0.177844
3569.651,0.0543312,0.191668
3571.579,0.054032,0.197393
3573.508,0.0537424,0.192214
3575.44,0.0534629,0.167704
3577.365,0.0531931,0.136054
3579.29,0.0529332,0.107301
3581.222,0.0526831,0.0877234
3583.15,0.0524429,0.077243
3585.079,0.0522125,0.0670196
3587.007,0.051992,0.0661416
3588.94,0.0517813,0.0819636
3590.864,0.0515805,0.0821062
3592.79,0.0513895,0.0832804
3594.72,0.0512084,0.103922
3596.65,0.0510371,0.135145
3598.578,0.0508757,0.142975
3600.507,0.0507241,0.12421
3602.435,0.0505824,0.0868342
3604.364,0.0504504,0.0570647
3606.292,0.0503284,0.0445291
3608.22,0.0502162,0.0417903
3610.15,0.0501139,0.0423522
3612.078,0.0500214,0.0358349
3614.006,0.0499387,0.0417784
3615.935,0.0498659,0.0387131
3617.863,0.049803,0.0358098
3619.792,0.0497499,0.0401965
3621.72,0.0497066,0.038219
3623.65,0.0496732,0.0322827
3625.577,0.0496496,0.025593
3627.506,0.0496359,0.0121835
3629.434,0.0496321,0.0331017
3631.363,0.0496381,0.0342201
3633.29,0.0496539,0.0249421
3635.22,0.0496796,0.0273649
3637.15,0.0497151,0.0239416
3639.077,0.0497605,0.0241656
3641.005,0.0498157,0.0247149
3642.934,0.0498808,0.0231019
3644.862,0.0499557,0.015082
3646.79,0.0500405,0.00121227
3648.719,0.0501351,0.00552237
3650.65,0.0502396,0.0279115
3652.58,0.0503539,0.0236076
3654.505,0.0504781,-0.000604867
3656.433,0.050612,0.00510507
3658.362,0.0507559,0.0139535
3660.29,0.0509096,0.0101686
3662.219,0.0510732,0.0100927
3664.147,0.0512466,0.00831984
3666.08,0.0514299,0.000189992
3668,0.0516229,-0.00204326
3669.933,0.0518259,0.0184576
3671.861,0.0520387,0.0220877
3673.79,0.0522614,-0.00313056
3675.718,0.0524938,0.0176818
3677.647,0.0527362,0.0248732
3679.575,0.0529884,0.0151762
3681.5,0.0532505,0.015069
3683.43,0.0535223,0.00914418
3685.361,0.0538041,0.00165705
3687.289,0.0540956,-0.00514805
3689.218,0.0543971,0.0169824
3691.15,0.0547083,0.0206635
3693.075,0.0550295,0.00712706
3695,0.0553604,-0.00391155
3696.93,0.0557013,-0.0043057
3698.86,0.0560519,-0.00465628