Folder: olivine/olivine/FTIR (part 2)

File: SC1-2-800C-7hr-c00-copper-baseline.CSV
baseline wavenumber (cm-1),baseline absorbance (cm-1),baseline-subtracted absorbance (cm-1)
3199.38,0.283138,1.43219e-14
3201.308,0.281368,0.000851926
3203.236,0.279606,0.00183489
3205.165,0.277849,-0.00366962
3207.093,0.276101,-0.00382576
3209.02,0.27436,0.00302714
3210.95,0.272625,0.00585541
3212.88,0.270898,0.00427819
3214.81,0.269177,0.00175629
3216.736,0.267463,0.000947255
3218.664,0.265757,0.00331336
3220.593,0.264057,0.00688881
3222.52,0.262365,0.00327199
3224.449,0.26068,0.00271494
3226.38,0.259001,0.000232698
3228.31,0.25733,0.000999402
3230.235,0.255666,0.00103215
3232.164,0.254008,0.00353082
3234.092,0.252358,0.0113865
3236.02,0.250715,0.0145099
3237.949,0.249079,0.00702708
3239.877,0.24745,-0.00184661
3241.81,0.245828,-0.00155486
3243.73,0.244213,0.00767221
3245.663,0.242605,0.0112285
3247.592,0.241003,0.00634951
3249.52,0.23941,0.00459268
3251.448,0.237823,0.00649252
3253.377,0.236243,0.00303236
3255.305,0.234671,0.00373194
3257.23,0.233104,0.0109264
3259.16,0.231546,0.00926224
3261.091,0.229994,0.00332675
3263.02,0.228449,0.00275014
3264.948,0.226912,0.00599871
3266.88,0.225381,0.00726005
3268.805,0.223857,0.00664616
3270.73,0.222341,0.00350145
3272.66,0.220831,0.00522009
3274.591,0.219328,0.00896849
3276.52,0.217833,0.00680844
3278.448,0.216345,0.0065364
3280.38,0.214864,0.0127541
3282.304,0.21339,0.0107726
3284.23,0.211922,0.00624613
3286.16,0.210462,0.00498744
3288.09,0.209008,0.00883821
3290.02,0.207562,0.00949736
3291.947,0.206123,0.0071269
3293.875,0.204691,0.0120217
3295.804,0.203266,0.0129064
3297.732,0.201848,0.00628561
3299.66,0.200437,0.00507445
3301.59,0.199033,0.0103141
3303.518,0.197636,0.0173316
3305.447,0.196245,0.0182908
3307.375,0.194863,0.0132966
3309.303,0.193487,0.0109336
3311.232,0.192118,0.0148697
3313.16,0.190757,0.0167305
3315.09,0.189402,0.00941637
3317.02,0.188054,0.00694135
3318.946,0.186713,0.00797763
3320.875,0.185379,0.0105842
3322.803,0.184053,0.0107173
3324.73,0.182734,0.00872406
3326.66,0.181421,0.00984894
3328.59,0.180116,0.0111369
3330.52,0.178817,0.0138585
3332.445,0.177526,0.0163565
3334.37,0.176241,0.0186086
3336.302,0.174964,0.0179767
3338.23,0.173693,0.013744
3340.159,0.17243,0.0129606
3342.09,0.171174,0.0156349
3344.02,0.169925,0.0179123
3345.945,0.168682,0.0189744
3347.873,0.167447,0.0181416
3349.802,0.166219,0.0211198
3351.73,0.164998,0.0206066
3353.659,0.163784,0.0178545
3355.587,0.162577,0.0246854
3357.52,0.161377,0.0286149
3359.44,0.160184,0.0252498
3361.373,0.158998,0.0235658
3363.302,0.157818,0.0239015
3365.23,0.156647,0.0232865
3367.158,0.155482,0.0220735
3369.087,0.154324,0.0209593
3371.015,0.153174,0.0219299
3372.94,0.15203,0.0226994
3374.87,0.150893,0.0241193
3376.801,0.149763,0.02471
3378.73,0.148641,0.0288314
3380.658,0.147525,0.0294065
3382.586,0.146417,0.0219956
3384.515,0.145315,0.0137575
3386.44,0.144221,0.0230878
3388.37,0.143133,0.0328094
3390.3,0.142053,0.0282548
3392.23,0.140979,0.0196489
3394.157,0.139913,0.0171306
3396.086,0.138854,0.0257981
3398.014,0.137802,0.0343043
3399.94,0.136756,0.0360726
3401.87,0.135718,0.0303335
3403.8,0.134687,0.0258247
3405.728,0.133663,0.030819
3407.657,0.132646,0.0400938
3409.585,0.131636,0.03928
3411.514,0.130633,0.0325279
3413.442,0.129637,0.0306155
3415.37,0.128648,0.0342829
3417.3,0.127666,0.0327426
3419.228,0.126691,0.0274613
3421.156,0.125723,0.0294053
3423.085,0.124762,0.0299489
3425.013,0.123809,0.0296314
3426.942,0.122862,0.0333612
3428.87,0.121922,0.0358219
3430.8,0.120989,0.0354893
3432.73,0.120064,0.040226
3434.656,0.119145,0.0442754
3436.58,0.118233,0.0449305
3438.513,0.117329,0.0411218
3440.441,0.116431,0.0386491
3442.37,0.115541,0.040583
3444.298,0.114657,0.0320808
3446.23,0.113781,0.0257715
3448.155,0.112912,0.039291
3450.08,0.112049,0.0382007
3452.012,0.111194,0.0364191
3453.941,0.110345,0.0414983
3455.869,0.109504,0.0436762
3457.798,0.10867,0.0435079
3459.73,0.107843,0.0388087
3461.655,0.107023,0.0349368
3463.583,0.10621,0.0424125
3465.512,0.105404,0.0414928
3467.44,0.104605,0.0416645
3469.369,0.103813,0.0425567
3471.297,0.103028,0.0424833
3473.23,0.10225,0.0485758
3475.15,0.101479,0.0454529
3477.083,0.100715,0.0395339
3479.011,0.0999582,0.0443748
3480.94,0.0992082,0.0547421
3482.868,0.0984657,0.0585333
3484.797,0.0977297,0.0572865
3486.725,0.0970012,0.0599144
3488.65,0.0962794,0.0607888
3490.58,0.095565,0.0614689
3492.511,0.0948572,0.0573965
3494.44,0.0941568,0.0572387
3496.368,0.0934631,0.0570555
3498.296,0.0927768,0.0593531
3500.225,0.0920972,0.0535837
3502.153,0.0914249,0.0503906
3504.08,0.0907594,0.0537474
3506.01,0.0901012,0.055281
3507.94,0.0894497,0.0566941
3509.867,0.0888056,0.0661349
3511.796,0.0881682,0.0770326
3513.724,0.0875381,0.0782701
3515.653,0.0869148,0.0697031
3517.58,0.0862988,0.0737149
3519.51,0.0856896,0.0813327
3521.438,0.0850877,0.0856104
3523.367,0.0844925,0.0927557
3525.295,0.0839046,0.0928048
3527.224,0.0833235,0.0922695
3529.152,0.0827497,0.0850135
3531.08,0.0821827,0.0741083
3533.009,0.0816229,0.0744168
3534.938,0.08107,0.0736562
3536.866,0.0805243,0.0734109
3538.795,0.0799854,0.0730269
3540.723,0.0794538,0.0684802
3542.652,0.078929,0.0605682
3544.58,0.0784115,0.0714987
3546.509,0.0779007,0.0750823
3548.437,0.0773973,0.0607475
3550.366,0.0769006,0.0494116
3552.29,0.0764112,0.0614708
3554.223,0.0759286,0.0727388
3556.151,0.0754532,0.0716681
3558.08,0.0749847,0.07951
3560.008,0.0745234,0.101947
3561.937,0.074069,0.120209
3563.865,0.0736218,0.124718
3565.79,0.0731814,0.131462
3567.722,0.0727483,0.147925
3569.651,0.0723219,0.149104
3571.579,0.0719029,0.155573
3573.508,0.0714906,0.151856
3575.44,0.0710856,0.131008
3577.365,0.0706874,0.100258
3579.29,0.0702965,0.0763816
3581.222,0.0699124,0.0607169
3583.15,0.0695355,0.0543446
3585.079,0.0691655,0.0449961
3587.007,0.0688027,0.0486547
3588.94,0.0684467,0.0711106
3590.864,0.068098,0.0680342
3592.79,0.0677561,0.0733741
3594.72,0.0674214,0.094058
3596.65,0.0670936,0.114784
3598.578,0.066773,0.120373
3600.507,0.0664593,0.108764
3602.435,0.0661527,0.0763491
3604.364,0.0658531,0.0438024
3606.292,0.0655606,0.0324651
3608.22,0.065275,0.0335762
3610.15,0.0649966,0.0280383
3612.078,0.0647251,0.0234877
3614.006,0.0644607,0.0265302
3615.935,0.0642033,0.0209392
3617.863,0.063953,0.0271336
3619.792,0.0637096,0.0361925
3621.72,0.0634734,0.031679
3623.65,0.0632441,0.0263617
3625.577,0.0630219,0.0199074
3627.506,0.0628067,0.0156859
3629.434,0.0625986,0.0482436
3631.363,0.0623974,0.0351099
3633.29,0.0622034,0.0178681
3635.22,0.0620163,0.0194116
3637.15,0.0618364,0.014922
3639.077,0.0616634,0.0105138
3641.005,0.0614975,0.00884701
3642.934,0.0613385,0.0145246
3644.862,0.0611867,0.00638101
3646.79,0.0610418,-0.00135419
3648.719,0.0609041,0.0155246
3650.65,0.0607733,0.0374081
3652.58,0.0606496,0.0218469
3654.505,0.0605329,-0.00470516
3656.433,0.0604232,0.0022762
3658.362,0.0603206,0.010481
3660.29,0.060225,0.00429019
3662.219,0.0601364,-0.000916947
3664.147,0.0600549,-0.000592296
3666.08,0.0599804,-0.00323436
3668,0.059913,0.000224818
3669.933,0.0598526,0.0258755
3671.861,0.0597992,0.0288908
3673.79,0.0597528,0.00265153
3675.718,0.0597135,0.0191708
3677.647,0.0596813,0.0186012
3679.575,0.059656,0.0106903
3681.5,0.0596378,0.00936119
3683.43,0.0596266,0.00272069
3685.361,0.0596225,-0.00505885
3687.289,0.0596254,-0.010502
3689.218,0.0596353,0.0117106
3691.15,0.0596523,0.0200367
3693.075,0.0596763,0.00886083
3695,0.0597073,-0.00549249
3696.93,0.0597454,-0.00503759
3698.86,0.0597905,-0.00508268

File: SC1-2-800C-7hr-c00-copper-high-baseline.CSV
baseline wavenumber (cm-1),baseline absorbance (cm-1),baseline-subtracted absorbance (cm-1)
3399.943,0.172829,2.22045e-16
3401.871,0.172068,-0.00601643
3403.8,0.171307,-0.0107957
3405.728,0.170547,-0.00606467
3407.657,0.169786,0.00295366
3409.585,0.169025,0.00189073
3411.514,0.168264,-0.00510378
3413.442,0.167504,-0.00725132
3415.371,0.166743,-0.00381219
3417.299,0.165982,-0.00557359
3419.228,0.165221,-0.0110691
3421.156,0.164461,-0.00933203
3423.085,0.1637,-0.00898852
3425.013,0.162939,-0.00949904
3426.942,0.162178,-0.00595529
3428.87,0.161417,-0.00367343
3430.799,0.160656,-0.00417799
3432.727,0.159896,0.000393868
3434.656,0.159135,0.00428534
3436.584,0.158374,0.00478968
3438.513,0.157613,0.000837221
3440.441,0.156853,-0.00177226
3442.37,0.156092,3.18802e-05
3444.298,0.155331,-0.00859296
3446.227,0.15457,-0.0150179
3448.155,0.15381,-0.00160694
3450.084,0.153049,-0.00279886
3452.012,0.152288,-0.00467499
3453.941,0.151527,0.000316757
3455.869,0.150766,0.00241414
3457.798,0.150006,0.00217239
3459.726,0.149245,-0.00259316
3461.655,0.148484,-0.00652439
3463.583,0.147723,0.000898983
3465.512,0.146962,-6.60095e-05
3467.44,0.146202,6.73606e-05
3469.369,0.145441,0.000928407
3471.297,0.14468,0.000830806
3473.226,0.143919,0.00690615
3475.154,0.143159,0.00377306
3477.083,0.142398,-0.00214897
3479.011,0.141637,0.00269581
3480.94,0.140876,0.0130742
3482.868,0.140116,0.0168834
3484.797,0.139355,0.0156617
3486.725,0.138594,0.0183216
3488.654,0.137833,0.0192352
3490.582,0.137072,0.0199614
3492.511,0.136312,0.0159422
3494.439,0.135551,0.0158446
3496.368,0.13479,0.0157287
3498.296,0.134029,0.0181005
3500.225,0.133268,0.0124125
3502.153,0.132508,0.00930772
3504.082,0.131747,0.01276
3506.01,0.130986,0.0143959
3507.939,0.130225,0.0159186
3509.867,0.129465,0.0254758
3511.796,0.128704,0.036497
3513.724,0.127943,0.0378651
3515.653,0.127182,0.0294358
3517.581,0.126422,0.0335922
3519.51,0.125661,0.0413616
3521.438,0.1249,0.045798
3523.367,0.124139,0.0531091
3525.295,0.123378,0.0533309
3527.224,0.122617,0.0529755
3529.152,0.121857,0.0459063
3531.081,0.121096,0.035195
3533.009,0.120335,0.0357044
3534.938,0.119574,0.0351518
3536.866,0.118814,0.0351214
3538.795,0.118053,0.0349595
3540.723,0.117292,0.0306418
3542.652,0.116531,0.022966
3544.58,0.115771,0.0341395
3546.509,0.11501,0.0379733
3548.437,0.114249,0.0238956
3550.366,0.113488,0.012824
3552.294,0.112728,0.0251544
3554.223,0.111967,0.0367007
3556.151,0.111206,0.0359153
3558.08,0.110445,0.0440497
3560.008,0.109684,0.0667859
3561.937,0.108923,0.0853544
3563.865,0.108163,0.0901764
3565.794,0.107402,0.0972419
3567.722,0.106641,0.114032
3569.651,0.10588,0.115546
3571.579,0.10512,0.122356
3573.508,0.104359,0.118988
3575.436,0.103598,0.0984958
3577.365,0.102837,0.0681085
3579.293,0.102077,0.0446014
3581.222,0.101316,0.0293136
3583.15,0.100555,0.023325
3585.079,0.0997941,0.0143675
3587.007,0.0990336,0.0184238
3588.936,0.0982726,0.0412848
3590.864,0.097512,0.0386202
3592.793,0.096751,0.0443792
3594.721,0.0959904,0.065489
3596.65,0.0952295,0.0866477
3598.578,0.0944689,0.0926772
3600.507,0.0937079,0.0815151
3602.435,0.0929473,0.0495545
3604.364,0.0921864,0.0174691
3606.292,0.0914258,0.00659996
3608.221,0.0906648,0.00818641
3610.149,0.0899042,0.00313071
3612.078,0.0891432,-0.000930511
3614.006,0.0883827,0.00260825
3615.935,0.0876217,-0.00247921
3617.863,0.0868611,0.00422548
3619.792,0.0861001,0.0138019
3621.72,0.0853395,0.00981289
3623.649,0.0845786,0.00502717
3625.577,0.083818,-0.000888692
3627.506,0.083057,-0.00456439
3629.434,0.0822964,0.0285457
3631.363,0.0815355,0.0159719
3633.291,0.0807749,-0.000703356
3635.22,0.0800139,0.00141408
3637.148,0.0792533,-0.0024949
3639.077,0.0784923,-0.00631514
3641.005,0.0777318,-0.00738727
3642.934,0.0769708,-0.0011076
3644.862,0.0762102,-0.00864248
3646.791,0.0754492,-0.0157616
3648.719,0.0746886,0.00174004
3650.648,0.0739277,0.0242537
3652.576,0.0731671,0.00932943
3654.505,0.0724061,-0.0165784
3656.433,0.0716455,-0.0089461
3658.362,0.0708846,-8.2977e-05
3660.29,0.070124,-0.00560876
3662.219,0.069363,-0.0101435
3664.147,0.0686024,-0.00913977
3666.076,0.0678414,-0.0110954
3668.004,0.0670809,-0.00694303
3669.933,0.0663199,0.0194082
3671.861,0.0655593,0.0231307
3673.79,0.0647983,-0.00239395
3675.718,0.0640377,0.0148466
3677.647,0.0632768,0.0150057
3679.575,0.0625162,0.00783017
3681.504,0.0617552,0.00724378
3683.432,0.0609946,0.00135269
3685.361,0.0602337,-0.00567002
3687.289,0.0594731,-0.0103497
3689.218,0.0587121,0.0126339
3691.146,0.0579515,0.0217374
3693.075,0.0571905,0.0113466
3695.003,0.05643,-0.00221516
3696.932,0.055669,-0.000961211
3698.86,0.0549084,-0.00020063

File: SC1-2-800C-7hr-c00-copper-low-baseline.CSV
baseline wavenumber (cm-1),baseline absorbance (cm-1),baseline-subtracted absorbance (cm-1)
3199.379,0.283138,1.78746e-14
3201.308,0.281003,0.00121641
3203.236,0.27888,0.00256085
3205.165,0.276765,-0.00258481
3207.093,0.274661,-0.0023851
3209.021,0.272566,0.00482084
3210.95,0.270481,0.00799951
3212.878,0.268406,0.00676971
3214.807,0.26634,0.00459259
3216.736,0.264285,0.00412552
3218.664,0.26224,0.0068306
3220.593,0.260203,0.0107424
3222.521,0.258178,0.0074589
3224.449,0.256163,0.00723239
3226.378,0.254156,0.00507804
3228.306,0.25216,0.00616966
3230.235,0.250173,0.00652467
3232.164,0.248196,0.00934278
3234.092,0.24623,0.0175149
3236.021,0.244272,0.0209522
3237.949,0.242326,0.0137802
3239.877,0.240389,0.00521451
3241.806,0.238461,0.00581164
3243.734,0.236544,0.0153411
3245.663,0.234636,0.0191971
3247.592,0.232738,0.0146151
3249.52,0.23085,0.0131522
3251.448,0.228973,0.0153432
3253.377,0.227104,0.0121715
3255.305,0.225246,0.0131567
3257.234,0.223397,0.0206339
3259.162,0.221559,0.0192497
3261.091,0.219729,0.0135915
3263.02,0.21791,0.0132893
3264.948,0.216101,0.0168093
3266.876,0.214302,0.0183393
3268.805,0.212512,0.0179914
3270.733,0.210733,0.0151097
3272.662,0.208963,0.0170887
3274.591,0.207202,0.0210946
3276.519,0.205453,0.0191891
3278.448,0.203712,0.019169
3280.376,0.201982,0.0256356
3282.304,0.200262,0.0239002
3284.233,0.198551,0.0196173
3286.161,0.19685,0.0185991
3288.09,0.195159,0.0226877
3290.019,0.193477,0.0235818
3291.947,0.191806,0.0214435
3293.875,0.190145,0.0265676
3295.804,0.188493,0.0276788
3297.732,0.186852,0.0212816
3299.661,0.18522,0.0202914
3301.589,0.183598,0.0257491
3303.518,0.181985,0.0329819
3305.447,0.180383,0.0341536
3307.375,0.17879,0.0293689
3309.303,0.177208,0.0272127
3311.232,0.175635,0.0313529
3313.16,0.174072,0.0334148
3315.089,0.172519,0.0262991
3317.017,0.170976,0.0240196
3318.946,0.169442,0.0252487
3320.875,0.167918,0.0280453
3322.803,0.166405,0.0283653
3324.731,0.164901,0.0265564
3326.66,0.163407,0.0278628
3328.588,0.161923,0.0293295
3330.517,0.160448,0.0322269
3332.445,0.158984,0.0348979
3334.374,0.157529,0.0373203
3336.302,0.156085,0.0368558
3338.231,0.154649,0.0327878
3340.159,0.153225,0.0321661
3342.088,0.151809,0.0349994
3344.016,0.150404,0.0374329
3345.945,0.149008,0.0386484
3347.873,0.147623,0.0379662
3349.802,0.146247,0.0410921
3351.73,0.144881,0.0407237
3353.659,0.143524,0.0381138
3355.587,0.142178,0.0450839
3357.516,0.140842,0.04915
3359.444,0.139515,0.0459185
3361.373,0.138198,0.0443654
3363.302,0.136891,0.0448291
3365.23,0.135594,0.0443392
3367.158,0.134307,0.0432487
3369.087,0.13303,0.0422541
3371.015,0.131762,0.0433414
3372.944,0.130504,0.0442249
3374.872,0.129257,0.0457559
3376.801,0.128019,0.046455
3378.729,0.126791,0.0506819
3380.658,0.125572,0.0513597
3382.586,0.124364,0.0440487
3384.515,0.123165,0.0359076
3386.443,0.121977,0.0453322
3388.372,0.120797,0.0551453
3390.3,0.119629,0.0506792
3392.229,0.118469,0.0421592
3394.157,0.11732,0.0397239
3396.086,0.11618,0.0484716
3398.014,0.115051,0.0570552
3399.943,0.113931,0.058898
3401.871,0.112821,0.0532307
3403.8,0.111721,0.0487908
3405.728,0.110631,0.0538513
3407.657,0.10955,0.0631893
3409.585,0.10848,0.0624361
3411.514,0.107419,0.0557416
3413.442,0.106368,0.0538841
3415.371,0.105327,0.0576036
3417.299,0.104296,0.0561125
3419.228,0.103274,0.0508776
3421.156,0.102263,0.0528653
3423.085,0.101261,0.0534497
3425.013,0.10027,0.0531701
3426.942,0.0992876,0.0569351
3428.87,0.0983157,0.0594282
3430.799,0.0973533,0.0591252
3432.727,0.0964011,0.0638886
3434.656,0.0954583,0.0679619
3436.584,0.0945259,0.0686381
3438.513,0.0936028,0.0648477
3440.441,0.09269,0.0623904
3442.37,0.0917867,0.064337
3444.298,0.0908936,0.0558446
3446.227,0.0900099,0.0495424
3448.155,0.0891365,0.0630661
3450.084,0.0882725,0.0619772
3452.012,0.0874189,0.0601942
3453.941,0.0865746,0.0652692
3455.869,0.0857406,0.06744
3457.798,0.084916,0.0672619
3459.726,0.0841017,0.0625501
3461.655,0.0832968,0.0586627
3463.583,0.0825022,0.0661201
3465.512,0.0817171,0.0651793
3467.44,0.0809421,0.065327
3469.369,0.0801767,0.0661926
3471.297,0.0794214,0.0660896
3473.226,0.0786757,0.0721498
3475.154,0.0779401,0.0689916
3477.083,0.0772141,0.0630347
3479.011,0.0764982,0.0678347
3480.94,0.0757919,0.0781585
3482.868,0.0750957,0.0819033
3484.797,0.074409,0.0806072
3486.725,0.0737326,0.083183
3488.654,0.0730656,0.0840026
3490.582,0.0724088,0.084625
3492.511,0.0717616,0.0804921
3494.439,0.0711245,0.080271
3496.368,0.070497,0.0800217
3498.296,0.0698796,0.0822503
3500.225,0.0692717,0.0764092
3502.153,0.068674,0.0731415
3504.082,0.0680859,0.076421
3506.01,0.0675078,0.0778743
3507.939,0.0669394,0.0792044
3509.867,0.0663811,0.0885594
3511.796,0.0658323,0.0993684
3513.724,0.0652937,0.100515
3515.653,0.0647647,0.0918533
3517.581,0.0642457,0.095768
3519.51,0.0637364,0.103286
3521.438,0.0632371,0.107461
3523.367,0.0627475,0.114501
3525.295,0.0622679,0.114441
3527.224,0.061798,0.113795
3529.152,0.0613381,0.106425
3531.081,0.0608879,0.095403
3533.009,0.0604477,0.095592
3534.938,0.0600172,0.094709
3536.866,0.0595967,0.0943385
3538.795,0.0591859,0.0938265
3540.723,0.0587851,0.0891489
3542.652,0.058394,0.0811033
3544.58,0.0580129,0.0918973
3546.509,0.0576414,0.0953416
3548.437,0.05728,0.0808647
3550.366,0.0569283,0.0693839
3552.294,0.0565866,0.0812954
3554.223,0.0562545,0.0924128
3556.151,0.0559325,0.0911888
3558.08,0.0556202,0.0988745
3560.008,0.0553179,0.121152
3561.937,0.0550252,0.139253
3563.865,0.0547426,0.143597
3565.794,0.0544697,0.150174
3567.722,0.0542067,0.166467
3569.651,0.0539535,0.167473
3571.579,0.0537103,0.173766
3573.508,0.0534767,0.16987
3575.436,0.0532532,0.148841
3577.365,0.0530393,0.117906
3579.293,0.0528355,0.0938426
3581.222,0.0526414,0.077988
3583.15,0.0524572,0.0714229
3585.079,0.0522828,0.0618789
3587.007,0.0521183,0.0653391
3588.936,0.0519636,0.0875938
3590.864,0.0518188,0.0843135
3592.793,0.0516837,0.0894464
3594.721,0.0515586,0.109921
3596.65,0.0514433,0.130434
3598.578,0.0513379,0.135808
3600.507,0.0512423,0.123981
3602.435,0.0511566,0.0913453
3604.364,0.0510807,0.0585748
3606.292,0.0510146,0.0470111
3608.221,0.0509584,0.0478928
3610.149,0.0509121,0.0421228
3612.078,0.0508756,0.0373371
3614.006,0.0508489,0.040142
3615.935,0.0508321,0.0343103
3617.863,0.0508252,0.0402614
3619.792,0.0508281,0.049074
3621.72,0.0508408,0.0443116
3623.649,0.0508634,0.0387423
3625.577,0.0508958,0.0320335
3627.506,0.0509381,0.0275545
3629.434,0.0509902,0.0598519
3631.363,0.0510522,0.0464551
3633.291,0.0511241,0.0289475
3635.22,0.0512058,0.0302222
3637.148,0.0512973,0.0254612
3639.077,0.0513987,0.0207785
3641.005,0.0515099,0.0188346
3642.934,0.051631,0.0242322
3644.862,0.0517618,0.0158059
3646.791,0.0519027,0.007785
3648.719,0.0520532,0.0243755
3650.648,0.0522137,0.0459677
3652.576,0.052384,0.0301125
3654.505,0.0525642,0.00326349
3656.433,0.0527542,0.00994526
3658.362,0.0529541,0.0178475
3660.29,0.0531637,0.0113515
3662.219,0.0533833,0.00583615
3664.147,0.0536127,0.00584996
3666.076,0.053852,0.00289408
3668.004,0.054101,0.00603678
3669.933,0.0543601,0.031368
3671.861,0.0546288,0.0340613
3673.79,0.0549075,0.00749688
3675.718,0.0551959,0.0236884
3677.647,0.0554943,0.0227881
3679.575,0.0558024,0.0145439
3681.504,0.0561206,0.0128784
3683.432,0.0564484,0.00589895
3685.361,0.0567862,-0.00222255
3687.289,0.0571337,-0.00801031
3689.218,0.0574912,0.0138548
3691.146,0.0578584,0.0218305
3693.075,0.0582356,0.0103015
3695.003,0.0586225,-0.00440768
3696.932,0.0590194,-0.00431164
3698.86,0.059426,-0.0047182