Folder: olivine/olivine/FTIR (part 7)

File: SC1-2-800C-7hr-c04-copper-SiO-baseline.CSV
wavenumber (/cm),baseline value (/cm),baseline-subtracted absorbance (/cm),
1625.72,11.1936,1.06581e-14
1627.65,11.1733,-0.36737
1629.58,11.153,-0.38615
1631.51,11.1328,-0.148925
1633.44,11.1125,-0.12844
1635.37,11.0922,-0.505322
1637.3,11.072,-0.778004
1639.22,11.0517,-0.424561
1641.15,11.0314,-0.108099
1643.08,11.0112,-0.138478
1645.01,10.9909,-0.360225
1646.94,10.9706,-0.341139
1648.87,10.9504,0.255889
1650.8,10.9301,1.10098
1652.72,10.9098,0.976537
1654.65,10.8896,0.00964271
1656.58,10.8693,0.0962047
1658.51,10.849,0.267751
1660.44,10.8288,0.193654
1662.37,10.8085,0.0289835
1664.29,10.7882,0.343287
1666.22,10.768,0.71677
1668.15,10.7477,0.453296
1670.08,10.7274,-0.0818638
1672.01,10.7072,0.15068
1673.94,10.6869,0.561952
1675.87,10.6666,0.727075
1677.79,10.6463,0.298338
1679.72,10.6261,0.00297358
1681.65,10.6058,-0.0514476
1683.58,10.5855,0.173869
1685.51,10.5653,0.536278
1687.44,10.545,0.938204
1689.37,10.5247,0.853732
1691.29,10.5045,0.471144
1693.22,10.4842,0.101373
1695.15,10.4639,-0.234389
1697.08,10.4437,0.0645513
1699.01,10.4234,0.78349
1700.94,10.4031,1.27969
1702.86,10.3829,0.665914
1704.79,10.3626,0.338506
1706.72,10.3423,0.145072
1708.65,10.3221,0.354095
1710.58,10.3018,0.420122
1712.51,10.2815,0.421286
1714.43,10.2613,0.754194
1716.36,10.241,0.827878
1718.29,10.2207,0.460013
1720.22,10.2005,0.710307
1722.15,10.1802,1.03246
1724.08,10.1599,1.19316
1726.01,10.1397,1.27529
1727.93,10.1194,0.993774
1729.86,10.0991,0.385875
1731.79,10.0788,0.253349
1733.72,10.0586,0.5179
1735.65,10.0383,0.948964
1737.58,10.018,1.06287
1739.51,9.99777,0.78725
1741.43,9.97751,1.09178
1743.36,9.95724,1.31642
1745.29,9.93698,1.06995
1747.22,9.9167,0.864683
1749.15,9.89644,0.93171
1751.08,9.87617,1.03333
1753.01,9.85591,1.63168
1754.93,9.83563,1.92572
1756.86,9.81537,1.78674
1758.79,9.7951,1.58882
1760.72,9.77483,1.68585
1762.65,9.75456,1.89068
1764.58,9.7343,1.67229
1766.51,9.71403,1.70381
1768.43,9.69376,2.05146
1770.36,9.67349,2.00545
1772.29,9.65323,1.62366
1774.22,9.63295,1.57738
1776.15,9.61269,1.79036
1778.08,9.59242,2.11037
1780,9.57216,2.02921
1781.93,9.55188,1.81268
1783.86,9.53162,1.95465
1785.79,9.51135,1.94625
1787.72,9.49108,1.93317
1789.65,9.47081,2.07855
1791.58,9.45055,2.06478
1793.5,9.43028,1.75301
1795.43,9.41001,1.62019
1797.36,9.38974,1.90423
1799.29,9.36948,2.16023
1801.22,9.3492,1.84446
1803.15,9.32894,1.83857
1805.08,9.30867,1.84869
1807,9.28841,1.87653
1808.93,9.26813,2.04636
1810.86,9.24787,2.06092
1812.79,9.2276,1.98453
1814.72,9.20734,1.99648
1816.65,9.18706,2.13224
1818.57,9.1668,2.19606
1820.5,9.14653,2.07608
1822.43,9.12626,2.23211
1824.36,9.10599,2.21696
1826.29,9.08573,2.18703
1828.22,9.06546,2.14244
1830.14,9.04519,2.49868
1832.07,9.02492,2.64448
1834,9.00466,2.57313
1835.93,8.98438,2.82039
1837.86,8.96412,2.78979
1839.79,8.94385,2.38957
1841.72,8.92359,2.26646
1843.64,8.90331,2.34111
1845.57,8.88305,2.33386
1847.5,8.86278,2.42147
1849.43,8.84251,2.54175
1851.36,8.82224,2.64005
1853.29,8.80198,2.71326
1855.22,8.78171,2.65737
1857.14,8.76144,2.64123
1859.07,8.74117,2.67059
1861,8.72091,2.87312
1862.93,8.70063,2.62619
1864.86,8.68037,2.54374
1866.79,8.66011,2.56071
1868.71,8.63984,2.40551
1870.64,8.61956,2.6322
1872.57,8.5993,2.9657
1874.5,8.57904,3.33226
1876.43,8.55876,3.12332
1878.36,8.53849,2.794
1880.29,8.51823,2.91066
1882.21,8.49796,2.87993
1884.14,8.47769,2.73777
1886.07,8.45742,2.80574
1888,8.43716,2.59731
1889.93,8.41688,2.63407
1891.86,8.39662,2.83413
1893.79,8.37635,2.7619
1895.71,8.35609,2.72358
1897.64,8.33581,2.91136
1899.57,8.31555,3.26
1901.5,8.29528,3.28788
1903.43,8.27502,2.92327
1905.36,8.25474,3.00462
1907.29,8.23448,3.27666
1909.21,8.21421,3.31602
1911.14,8.19394,3.10925
1913.07,8.17367,3.19463
1915,8.15341,3.34929
1916.93,8.13315,3.38192
1918.86,8.11287,3.31495
1920.79,8.0926,3.39155
1922.71,8.07234,3.30676
1924.64,8.05207,3.13447
1926.57,8.0318,3.10478
1928.5,8.01153,3.31943
1930.43,7.99127,3.16167
1932.36,7.971,3.15407
1934.28,7.95073,3.17101
1936.21,7.93046,3.08687
1938.14,7.91019,3.23896
1940.07,7.88993,3.54745
1942,7.86966,3.59532
1943.93,7.84939,3.36071
1945.86,7.82912,3.41069
1947.78,7.80886,3.45557
1949.71,7.78859,3.86608
1951.64,7.76831,3.97407
1953.57,7.74805,3.62291
1955.5,7.72779,3.67594
1957.43,7.70752,3.67097
1959.35,7.68725,3.79128
1961.28,7.66698,3.8786
1963.21,7.64672,3.92483
1965.14,7.62645,3.72483
1967.07,7.60618,3.71518
1969,7.58591,3.78777
1970.92,7.56565,3.79623
1972.85,7.54537,3.77509
1974.78,7.52511,3.884
1976.71,7.50484,3.91815
1978.64,7.48458,3.71661
1980.57,7.4643,3.69232
1982.5,7.44404,3.81899
1984.42,7.42377,3.75525
1986.35,7.40349,3.61613
1988.28,7.38323,3.76188
1990.21,7.36297,3.91997
1992.14,7.3427,3.91721
1994.07,7.32242,4.08527
1996,7.30216,4.13107
1997.92,7.2819,4.13084
1999.85,7.26162,4.36994
2001.78,7.24136,4.4001
2003.71,7.22109,4.32136
2005.64,7.20083,4.20293
2007.57,7.18055,4.06075
2009.49,7.16029,4.23154
2011.42,7.14002,4.35823
2013.35,7.11975,4.29253
2015.28,7.09948,4.2707
2017.21,7.07922,4.14897
2019.14,7.05895,4.28293
2021.07,7.03868,4.34846
2022.99,7.01841,4.50588
2024.92,6.99815,4.70902
2026.85,6.97787,4.55849
2028.78,6.95761,4.34174
2030.71,6.93734,4.25485
2032.64,6.91708,4.34347
2034.57,6.8968,4.35467
2036.49,6.87654,4.47357
2038.42,6.85627,4.7603
2040.35,6.83601,4.78378
2042.28,6.81573,4.59737
2044.21,6.79547,4.73746
2046.14,6.7752,4.54266
2048.07,6.75493,4.30502
2049.99,6.73466,4.37678
2051.92,6.7144,4.25762
2053.85,6.69413,4.25711
2055.78,6.67386,4.25045
2057.71,6.65359,3.78099
2059.64,6.63333,3.36828
2061.57,6.61305,3.10185
2063.49,6.59279,2.85439
2065.42,6.57252,2.63441
2067.35,6.55226,2.37771
2069.28,6.53198,2.18479
2071.21,6.51172,2.05503
2073.14,6.49145,1.9114
2075.06,6.47118,1.84908
2076.99,6.45091,1.8301
2078.92,6.43065,1.61563
2080.85,6.41038,1.3773
2082.78,6.39011,1.27746
2084.71,6.36984,1.20462
2086.64,6.34958,1.09754
2088.56,6.3293,0.982057
2090.49,6.30904,0.891241
2092.42,6.28877,0.800704
2094.35,6.26851,0.739176
2096.28,6.24823,0.701969
2098.21,6.22797,0.67532
2100.14,6.2077,0.644602
2102.06,6.18743,0.601699
2103.99,6.16716,0.586169
2105.92,6.1469,0.565731
2107.85,6.12663,0.455781
2109.78,6.10636,0.395926
2111.71,6.08609,0.392809
2113.63,6.06583,0.344806
2115.56,6.04555,0.281252
2117.49,6.02529,0.263437
2119.42,6.00502,0.281345
2121.35,5.98476,0.290933
2123.28,5.96448,0.271754
2125.2,5.94422,0.173453
2127.13,5.92395,0.131667
2129.06,5.90369,0.136065
2130.99,5.88341,0.165294
2132.92,5.86315,0.1644
2134.85,5.84288,0.123145
2136.78,5.82261,0.0912798
2138.7,5.80234,0.0693918
2140.63,5.78208,0.0641717
2142.56,5.76181,0.0725828
2144.49,5.74154,0.0626321
2146.42,5.72127,0.0355889
2148.35,5.70101,0.0115171

File: SC1-2-800C-7hr-c04-copper.CSV
4.493401e+002,5.316259e-001
4.763391e+002,6.000000e+000
5.033381e+002,5.107897e-001
5.303371e+002,6.785158e-001
5.573361e+002,9.265739e-001
5.843350e+002,1.960578e+000
6.113340e+002,1.891969e+000
6.383330e+002,2.008437e+000
6.653320e+002,2.019844e+000
6.923309e+002,2.036963e+000
7.193300e+002,1.935998e+000
7.463289e+002,1.954351e+000
7.733279e+002,1.930976e+000
8.003269e+002,2.026483e+000
8.273259e+002,2.062530e+000
8.543248e+002,2.041371e+000
8.813238e+002,2.044961e+000
9.083228e+002,2.083228e+000
9.353218e+002,2.120992e+000
9.623207e+002,1.990752e+000
9.893197e+002,2.107713e+000
1.016319e+003,2.016895e+000
1.043318e+003,2.165605e+000
1.070317e+003,2.050621e+000
1.097316e+003,2.049092e+000
1.124315e+003,2.161976e+000
1.151314e+003,2.136445e+000
1.178313e+003,2.183153e+000
1.205312e+003,2.131232e+000
1.232311e+003,2.189685e+000
1.259310e+003,2.113857e+000
1.286308e+003,2.224957e+000
1.313307e+003,2.242413e+000
1.340307e+003,2.091173e+000
1.367305e+003,2.148423e+000
1.394304e+003,2.114942e+000
1.421303e+003,2.152603e+000
1.448302e+003,2.109859e+000
1.475301e+003,2.142417e+000
1.502300e+003,2.098237e+000
1.529299e+003,2.019975e+000
1.556298e+003,2.177863e+000
1.583297e+003,2.126433e+000
1.610296e+003,2.125217e+000
1.637295e+003,2.023664e+000
1.664294e+003,2.189380e+000
1.691293e+003,2.158535e+000
1.718292e+003,2.100190e+000
1.745291e+003,2.164730e+000
1.772290e+003,2.218144e+000
1.799289e+003,2.268166e+000
1.826288e+003,2.217326e+000
1.853287e+003,2.265304e+000
1.880286e+003,2.248219e+000
1.907285e+003,2.264494e+000
1.934284e+003,2.187446e+000
1.961283e+003,2.271307e+000
1.988282e+003,2.192070e+000
2.015281e+003,2.236603e+000
2.042280e+003,2.245095e+000
2.069279e+003,1.711599e+000
2.096278e+003,1.362066e+000
2.123277e+003,1.220801e+000
2.150276e+003,1.110889e+000
2.177275e+003,1.021348e+000
2.204274e+003,9.526615e-001
2.231273e+003,8.734933e-001
2.258272e+003,8.167556e-001
2.285271e+003,7.586432e-001
2.312270e+003,7.124475e-001
2.339269e+003,6.708861e-001
2.366268e+003,6.341425e-001
2.393267e+003,5.750334e-001
2.420266e+003,5.376824e-001
2.447265e+003,5.049316e-001
2.474264e+003,4.877213e-001
2.501262e+003,4.678199e-001
2.528261e+003,4.244851e-001
2.555260e+003,3.996121e-001
2.582260e+003,3.750423e-001
2.609259e+003,3.507968e-001
2.636258e+003,3.353356e-001
2.663256e+003,3.143418e-001
2.690255e+003,2.846740e-001
2.717254e+003,2.554644e-001
2.744253e+003,2.340478e-001
2.771252e+003,2.224594e-001
2.798251e+003,2.118070e-001
2.825250e+003,2.028255e-001
2.852249e+003,1.947265e-001
2.879248e+003,1.775942e-001
2.906247e+003,1.651854e-001
2.933246e+003,1.567774e-001
2.960245e+003,1.463596e-001
2.987244e+003,1.338642e-001
3.014243e+003,1.096147e-001
3.041242e+003,9.069248e-002
3.068241e+003,7.623795e-002
3.095240e+003,6.803462e-002
3.122239e+003,6.070974e-002
3.149238e+003,5.495062e-002
3.176237e+003,4.881231e-002
3.203236e+003,4.604294e-002
3.230235e+003,4.138300e-002
3.257234e+003,3.789352e-002
3.284233e+003,3.530644e-002
3.311232e+003,3.047259e-002
3.338231e+003,2.897025e-002
3.365230e+003,2.627752e-002
3.392229e+003,2.168868e-002
3.419228e+003,2.108900e-002
3.446227e+003,1.964985e-002
3.473226e+003,1.960267e-002
3.500225e+003,2.008699e-002
3.527224e+003,2.303384e-002
3.554223e+003,1.630503e-002
3.581222e+003,1.467977e-002
3.608221e+003,5.103352e-003
3.635220e+003,2.142954e-003
3.662219e+003,-9.987697e-004
3.689218e+003,1.022095e-003
3.716217e+003,-2.994381e-003
3.743216e+003,-9.917589e-003
3.770215e+003,-4.295948e-003
3.797214e+003,-6.056914e-003
3.824213e+003,-5.616851e-003
3.851211e+003,-1.141054e-002
3.878210e+003,-1.018508e-002
3.905209e+003,-8.156436e-003
3.932208e+003,-7.152207e-003
3.959208e+003,-1.077936e-002
3.986206e+003,-1.168405e-002
4.013205e+003,-1.265186e-002
4.040204e+003,-1.375583e-002
4.067203e+003,-1.407214e-002
4.094202e+003,-1.484977e-002
4.121201e+003,-1.592174e-002
4.148200e+003,-1.574887e-002
4.175199e+003,-1.654306e-002
4.202198e+003,-1.628922e-002
4.229197e+003,-1.714197e-002
4.256196e+003,-1.492898e-002
4.283195e+003,-1.618102e-002
4.310194e+003,-1.615251e-002
4.337193e+003,-1.678151e-002
4.364192e+003,-1.679391e-002
4.391191e+003,-1.772965e-002
4.418190e+003,-1.775042e-002
4.445189e+003,-1.749331e-002
4.472188e+003,-1.641699e-002
4.499187e+003,-1.773963e-002
4.526186e+003,-1.700008e-002
4.553185e+003,-1.626644e-002
4.580184e+003,-1.603722e-002
4.607183e+003,-1.477077e-002
4.634182e+003,-1.699151e-002
4.661181e+003,-1.610383e-002
4.688180e+003,-1.671188e-002
4.715179e+003,-1.813467e-002
4.742178e+003,-1.745550e-002
4.769177e+003,-1.576424e-002
4.796176e+003,-1.741402e-002
4.823175e+003,-1.839692e-002
4.850174e+003,-1.572957e-002
4.877173e+003,-1.651136e-002
4.904172e+003,-1.549466e-002
4.931171e+003,-1.825913e-002
4.958169e+003,-1.832841e-002
4.985168e+003,-1.549517e-002
5.012167e+003,-1.669365e-002
5.039167e+003,-1.539116e-002
5.066166e+003,-1.628635e-002
5.093165e+003,-1.464217e-002
5.120164e+003,-1.584967e-002
5.147163e+003,-1.755521e-002
5.174162e+003,-1.602617e-002
5.201161e+003,-1.601947e-002
5.228160e+003,-1.177009e-002
5.255158e+003,-1.387722e-002
5.282157e+003,-1.578213e-002
5.309156e+003,-1.576631e-002
5.336155e+003,-1.126473e-002
5.363154e+003,-1.205401e-002
5.390153e+003,-1.331898e-002
5.417152e+003,-1.210541e-002
5.444151e+003,-1.775369e-002
5.471150e+003,-1.283919e-002
5.498149e+003,-1.138849e-002
5.525148e+003,-1.270589e-002
5.552147e+003,-9.519512e-003
5.579146e+003,-8.372461e-003
5.606145e+003,-9.682760e-003
5.633144e+003,-7.342312e-003
5.660143e+003,-9.794958e-003
5.687142e+003,-9.538800e-003
5.714141e+003,-5.276355e-003
5.741140e+003,-2.920927e-003
5.768139e+003,-1.581289e-003
5.795138e+003,-6.080476e-004
5.822137e+003,7.872600e-003
5.849136e+003,7.167935e-003
5.876135e+003,8.335795e-003
5.903134e+003,1.027081e-002
5.930133e+003,1.556760e-002
5.957132e+003,1.728083e-002
5.984131e+003,1.869006e-002
6.011130e+003,3.283132e-002
6.038129e+003,2.800116e-002
6.065128e+003,3.921377e-002
6.092127e+003,4.762603e-002
6.119126e+003,4.760747e-002
6.146125e+003,6.017781e-002
6.173124e+003,6.207383e-002
6.200123e+003,7.588235e-002
6.227122e+003,8.606256e-002
6.254121e+003,8.895262e-002
6.281120e+003,1.061551e-001
6.308119e+003,1.158546e-001
6.335118e+003,1.385335e-001
6.362117e+003,1.354249e-001
6.389116e+003,1.545764e-001
6.416115e+003,1.678886e-001
6.443113e+003,1.901817e-001
6.470112e+003,1.982803e-001
6.497111e+003,2.290989e-001
6.524110e+003,2.437199e-001
6.551109e+003,2.682595e-001
6.578108e+003,2.780646e-001
6.605107e+003,2.928706e-001
6.632106e+003,3.405414e-001
6.659105e+003,3.725608e-001
6.686104e+003,3.869052e-001
6.713104e+003,4.262626e-001
6.740102e+003,4.658843e-001
6.767101e+003,4.829647e-001
6.794100e+003,5.253774e-001
6.821099e+003,5.145020e-001
6.848098e+003,5.817393e-001
6.875097e+003,6.355841e-001
6.902096e+003,6.289379e-001
6.929095e+003,7.029305e-001
6.956094e+003,7.012030e-001
6.983093e+003,7.556863e-001
7.010092e+003,7.256660e-001
7.037091e+003,7.852992e-001
7.064090e+003,8.859402e-001
7.091089e+003,8.323671e-001
7.118088e+003,8.930534e-001
7.145087e+003,9.251520e-001
7.172086e+003,1.018741e+000
7.199085e+003,1.069113e+000
7.226084e+003,1.073681e+000
7.253083e+003,1.140898e+000
7.280082e+003,1.218723e+000
7.307081e+003,1.117406e+000
7.334080e+003,1.287785e+000
7.361079e+003,1.522031e+000
7.388078e+003,1.249805e+000
7.415077e+003,1.557093e+000
7.442076e+003,1.590907e+000
7.469075e+003,1.464841e+000
7.496074e+003,1.071354e+000
7.523073e+003,1.373345e+000
7.550072e+003,1.357450e+000
7.577071e+003,1.641317e+000
7.604070e+003,6.000000e+000
7.631068e+003,1.934375e+000
7.658067e+003,1.307853e+000
7.685066e+003,2.255847e+000
7.712065e+003,1.300296e+000
7.739064e+003,1.336203e+000
7.766063e+003,1.617999e+000
7.793063e+003,1.947985e+000
7.820062e+003,1.361044e+000
7.847061e+003,6.000000e+000
7.874060e+003,1.529595e+000
7.901059e+003,1.529136e+000
7.928057e+003,6.000000e+000
7.955056e+003,1.106904e+000
7.982055e+003,8.138857e-001
8.009054e+003,1.207414e+000
8.036053e+003,1.110966e+000
8.063052e+003,9.786037e-001
8.090051e+003,1.731786e+000
8.117050e+003,6.000000e+000
8.144049e+003,6.000000e+000
8.171048e+003,1.070955e+000
8.198047e+003,1.182501e+000
8.225046e+003,1.415735e+000
8.252045e+003,1.245222e+000
8.279044e+003,6.000000e+000
8.306043e+003,9.315218e-001
8.333042e+003,1.399587e+000
8.360041e+003,2.293562e+000
8.387040e+003,4.098489e-001
8.414039e+003,6.000000e+000
8.441038e+003,5.826975e-001
8.468037e+003,6.000000e+000
8.495036e+003,6.550340e-001
8.500821e+003,6.000000e+000

File: SC1-2-800C-7hr-c06-copper-baseline-high.CSV
wavenumber (/cm),baseline value (/cm),baseline-subtracted absorbance (/cm),
3149.24,0.379125,0.00119879
3151.17,0.376694,0.00260133
3153.09,0.374275,0.00128428
3155.02,0.371865,0.000745515
3156.95,0.369463,0.00275196
3158.88,0.36707,-0.000220113
3160.81,0.364688,-0.000426321
3162.74,0.362314,0.00403281
3164.67,0.359951,0.00552755
3166.59,0.357597,0.00453388
3168.52,0.355251,0.00336851
3170.45,0.352914,0.00351635
3172.38,0.350588,0.00161643
3174.31,0.34827,0.000129462
3176.24,0.345963,-0.000317512
3178.17,0.343664,0.00357826
3180.09,0.341375,0.00777134
3182.02,0.339096,0.00532584
3183.95,0.336825,0.0066275
3185.88,0.334563,0.00870257
3187.81,0.332312,0.0076659
3189.74,0.330069,0.00605235
3191.66,0.327836,0.00518989
3193.59,0.325612,0.00895064
3195.52,0.323398,0.00729293
3197.45,0.321194,0.00680958
3199.38,0.318998,0.00624802
3201.31,0.316811,0.00853545
3203.24,0.314634,0.0119531
3205.16,0.312466,0.0144424
3207.09,0.310308,0.0175199
3209.02,0.30816,0.0194978
3210.95,0.30602,0.0209778
3212.88,0.30389,0.0233713
3214.81,0.301769,0.0255458
3216.74,0.299657,0.0238494
3218.66,0.297555,0.0233266
3220.59,0.295462,0.0264678
3222.52,0.293379,0.0255799
3224.45,0.291305,0.0242049
3226.38,0.28924,0.02094
3228.31,0.287185,0.0169935
3230.24,0.285139,0.0202415
3232.16,0.283101,0.0251899
3234.09,0.281074,0.0308499
3236.02,0.279056,0.0333366
3237.95,0.277048,0.0328516
3239.88,0.275049,0.0322085
3241.81,0.273058,0.0283884
3243.73,0.271078,0.0271483
3245.66,0.269107,0.0295391
3247.59,0.267144,0.0285394
3249.52,0.265192,0.0281368
3251.45,0.263249,0.0298222
3253.38,0.261315,0.0284236
3255.3,0.259391,0.0255578
3257.23,0.257475,0.0277186
3259.16,0.25557,0.0284915
3261.09,0.253673,0.02543
3263.02,0.251786,0.0255871
3264.95,0.249908,0.032502
3266.88,0.248041,0.036828
3268.8,0.246181,0.0321642
3270.73,0.244332,0.0279837
3272.66,0.242491,0.0309467
3274.59,0.240659,0.033724
3276.52,0.238838,0.0362271
3278.45,0.237026,0.0362333
3280.38,0.235223,0.0345014
3282.3,0.23343,0.0342221
3284.23,0.231645,0.0362497
3286.16,0.229871,0.0361299
3288.09,0.228105,0.035708
3290.02,0.226348,0.0361364
3291.95,0.224602,0.0345311
3293.88,0.222865,0.0376476
3295.8,0.221136,0.0415237
3297.73,0.219418,0.0396348
3299.66,0.217708,0.0391818
3301.59,0.216008,0.0424596
3303.52,0.214317,0.0472113
3305.45,0.212636,0.0445499
3307.38,0.210964,0.0414584
3309.3,0.209302,0.0453391
3311.23,0.207648,0.0459466
3313.16,0.206004,0.0427627
3315.09,0.204369,0.0392739
3317.02,0.202745,0.0367898
3318.95,0.201128,0.0370121
3320.88,0.199521,0.0430114
3322.8,0.197924,0.0449937
3324.73,0.196337,0.0445283
3326.66,0.194758,0.0434223
3328.59,0.193189,0.0421043
3330.52,0.191629,0.0492205
3332.45,0.190079,0.0474323
3334.37,0.188538,0.0448151
3336.3,0.187006,0.0486525
3338.23,0.185483,0.0452853
3340.16,0.183971,0.0430326
3342.09,0.182467,0.0484841
3344.02,0.180973,0.0548706
3345.95,0.179487,0.0567614
3347.87,0.178012,0.0549597
3349.8,0.176545,0.0537147
3351.73,0.175089,0.0513304
3353.66,0.173641,0.0521089
3355.59,0.172203,0.0555763
3357.52,0.170774,0.057443
3359.44,0.169355,0.0583231
3361.37,0.167944,0.0582363
3363.3,0.166543,0.0607584
3365.23,0.165152,0.0593334
3367.16,0.16377,0.0553488
3369.09,0.162397,0.05421
3371.01,0.161034,0.0555543
3372.94,0.159679,0.0566254
3374.87,0.158335,0.0587153
3376.8,0.156999,0.059213
3378.73,0.155674,0.0617302
3380.66,0.154357,0.0603732
3382.59,0.15305,0.0542014
3384.51,0.151751,0.0510253
3386.44,0.150463,0.0583288
3388.37,0.149183,0.0627902
3390.3,0.147914,0.0592722
3392.23,0.146653,0.0558745
3394.16,0.145402,0.0585592
3396.09,0.14416,0.061789
3398.01,0.142928,0.063857
3399.94,0.141704,0.0689002
3401.87,0.140491,0.0728728
3403.8,0.139286,0.0707372
3405.73,0.138091,0.0702457
3407.66,0.136905,0.0686356
3409.59,0.135729,0.0662774
3411.51,0.134562,0.0695026
3413.44,0.133404,0.0654628
3415.37,0.132255,0.0648307
3417.3,0.131117,0.0687416
3419.23,0.129987,0.0693477
3421.16,0.128867,0.0731103
3423.09,0.127756,0.0748085
3425.01,0.126654,0.0726973
3426.94,0.125562,0.0697936
3428.87,0.124479,0.0751984
3430.8,0.123405,0.0781587
3432.73,0.122341,0.0756558
3434.66,0.121286,0.0732881
3436.58,0.120241,0.0754741
3438.51,0.119205,0.0806884
3440.44,0.118178,0.0812733
3442.37,0.11716,0.0881072
3444.3,0.116153,0.0868841
3446.23,0.115154,0.0814076
3448.16,0.114164,0.0882206
3450.08,0.113184,0.0892268
3452.01,0.112214,0.0861008
3453.94,0.111252,0.0831842
3455.87,0.1103,0.0862545
3457.8,0.109358,0.0885088
3459.73,0.108425,0.0860902
3461.66,0.1075,0.0880064
3463.58,0.106586,0.0901403
3465.51,0.105681,0.087033
3467.44,0.104785,0.0899022
3469.37,0.103898,0.0936381
3471.3,0.103021,0.0922271
3473.23,0.102153,0.0876495
3475.15,0.101295,0.089796
3477.08,0.100446,0.0940591
3479.01,0.0996061,0.0962049
3480.94,0.0987755,0.10008
3482.87,0.0979546,0.103884
3484.8,0.0971427,0.102914
3486.72,0.0963406,0.105724
3488.65,0.0955473,0.109381
3490.58,0.0947639,0.10837
3492.51,0.0939894,0.0983996
3494.44,0.0932246,0.0943383
3496.37,0.0924688,0.0934688
3498.3,0.0917228,0.097045
3500.22,0.0909857,0.0895074
3502.15,0.0902583,0.0811742
3504.08,0.0895399,0.086082
3506.01,0.0888313,0.0942776
3507.94,0.0881316,0.0967539
3509.87,0.0874416,0.0975783
3511.8,0.0867607,0.103911
3513.72,0.0860894,0.107999
3515.65,0.0854271,0.108853
3517.58,0.0847746,0.115186
3519.51,0.084131,0.121956
3521.44,0.0834971,0.126837
3523.37,0.0828723,0.133413
3525.3,0.0822571,0.128832
3527.22,0.081651,0.120716
3529.15,0.0810545,0.120216
3531.08,0.080467,0.116422
3533.01,0.0798893,0.11018
3534.94,0.0793205,0.109478
3536.87,0.0787615,0.111754
3538.8,0.0782114,0.108551
3540.72,0.077671,0.103008
3542.65,0.0771397,0.0974341
3544.58,0.076618,0.0976537
3546.51,0.0761054,0.0924547
3548.44,0.0756025,0.0851695
3550.37,0.0751086,0.0836968
3552.29,0.0746243,0.0953789
3554.22,0.0741491,0.10568
3556.15,0.0736835,0.110143
3558.08,0.073227,0.117797
3560.01,0.0727801,0.133664
3561.94,0.0723423,0.147353
3563.86,0.0719141,0.152984
3565.79,0.071495,0.156754
3567.72,0.0710855,0.181187
3569.65,0.0706852,0.193339
3571.58,0.0702944,0.199379
3573.51,0.0699127,0.195215
3575.44,0.0695406,0.169532
3577.36,0.0691777,0.134347
3579.29,0.0688242,0.104863
3581.22,0.06848,0.0890428
3583.15,0.0681453,0.0796013
3585.08,0.0678198,0.0641273
3587.01,0.0675037,0.0621804
3588.94,0.0671969,0.0790063
3590.86,0.0668996,0.0795789
3592.79,0.0666115,0.0831671
3594.72,0.0663329,0.100109
3596.65,0.0660634,0.121595
3598.58,0.0658035,0.127856
3600.51,0.0655528,0.114207
3602.43,0.0653116,0.0830502
3604.36,0.0650796,0.0563698
3606.29,0.0648571,0.0417858
3608.22,0.0646438,0.0400756
3610.15,0.0644399,0.0387154
3612.08,0.0642454,0.0293875
3614.01,0.0640602,0.0350154
3615.93,0.0638844,0.0310933
3617.86,0.0637179,0.0293108
3619.79,0.0635607,0.036042
3621.72,0.063413,0.0368042
3623.65,0.0632745,0.0284919
3625.58,0.0631455,0.0200054
3627.51,0.0630258,0.00562456
3629.43,0.0629154,0.0274499
3631.36,0.0628144,0.0336506
3633.29,0.0627227,0.0272298
3635.22,0.0626404,0.0312145
3637.15,0.0625674,0.0285172
3639.08,0.0625038,0.0256668
3641.01,0.0624495,0.0194448
3642.93,0.0624046,0.0173887
3644.86,0.0623691,0.00991306
3646.79,0.0623428,-0.000439578
3648.72,0.062326,0.00679334
3650.65,0.0623185,0.0339452
3652.58,0.0623203,0.0291773
3654.51,0.0623315,0.00324991
3656.43,0.0623521,0.00824893
3658.36,0.062382,0.0156971
3660.29,0.0624212,0.0112036
3662.22,0.0624698,0.0124547
3664.15,0.0625277,0.0109946
3666.08,0.0625951,0.00352609
3668,0.0626717,-0.00165071
3669.93,0.0627577,0.017337
3671.86,0.062853,0.0220551
3673.79,0.0629578,-0.0069237
3675.72,0.0630718,0.0110171
3677.65,0.0631952,0.0207014
3679.57,0.063328,0.010467
3681.5,0.0634701,0.00850599
3683.43,0.0636215,0.00466974
3685.36,0.0637824,0.000938232
3687.29,0.0639525,-0.00399485
3689.22,0.0641321,0.00942399
3691.15,0.0643209,0.0105683
3693.07,0.0645191,0.0070784
3695,0.0647267,-0.00116944
3696.93,0.0649436,0.00189883

File: SC1-2-800C-7hr-c06-copper-baseline-low.CSV
wavenumber (/cm),baseline value (/cm),baseline-subtracted absorbance (/cm),
3450.08,0.198009,0.0044021
3452.01,0.19685,0.0014647
3453.94,0.19569,-0.00125381
3455.87,0.194531,0.00202379
3457.8,0.193372,0.00449485
3459.73,0.192213,0.00230217
3461.66,0.191053,0.00445386
3463.58,0.189894,0.00683245
3465.51,0.188734,0.00397939
3467.44,0.187575,0.00711199
3469.37,0.186416,0.0111208
3471.3,0.185257,0.00999186
3473.23,0.184097,0.00570577
3475.15,0.182938,0.00815309
3477.08,0.181778,0.0127264
3479.01,0.180619,0.0151918
3480.94,0.17946,0.0193959
3482.87,0.178301,0.0235378
3484.8,0.177141,0.0229159
3486.72,0.175982,0.0260822
3488.65,0.174822,0.0301057
3490.58,0.173663,0.0294706
3492.51,0.172504,0.0198854
3494.44,0.171345,0.0162184
3496.37,0.170185,0.0157526
3498.3,0.169026,0.0197419
3500.22,0.167866,0.0126268
3502.15,0.166707,0.00472529
3504.08,0.165548,0.0100743
3506.01,0.164389,0.0187203
3507.94,0.163229,0.0216566
3509.87,0.16207,0.02295
3511.8,0.16091,0.0297609
3513.72,0.159751,0.0343366
3515.65,0.158592,0.0356881
3517.58,0.157433,0.0425282
3519.51,0.156273,0.0498138
3521.44,0.155114,0.0552206
3523.37,0.153954,0.0623314
3525.3,0.152795,0.058294
3527.22,0.151636,0.0507312
3529.15,0.150477,0.0507937
3531.08,0.149317,0.0475717
3533.01,0.148158,0.0419111
3534.94,0.146998,0.0418003
3536.87,0.145839,0.0446762
3538.8,0.14468,0.0420829
3540.72,0.143521,0.0371582
3542.65,0.142361,0.0322128
3544.58,0.141202,0.0330698
3546.51,0.140042,0.0285178
3548.44,0.138883,0.0218887
3550.37,0.137724,0.0210817
3552.29,0.136565,0.0334385
3554.22,0.135405,0.044424
3556.15,0.134246,0.0495802
3558.08,0.133086,0.0579372
3560.01,0.131927,0.0745169
3561.94,0.130768,0.0889279
3563.86,0.129609,0.0952892
3565.79,0.128449,0.0998004
3567.72,0.12729,0.124982
3569.65,0.12613,0.137894
3571.58,0.124971,0.144702
3573.51,0.123812,0.141316
3575.44,0.122653,0.11642
3577.36,0.121493,0.082032
3579.29,0.120334,0.0533529
3581.22,0.119174,0.0383485
3583.15,0.118015,0.0297313
3585.08,0.116856,0.0150914
3587.01,0.115697,0.0139875
3588.94,0.114537,0.0316662
3590.86,0.113378,0.0331005
3592.79,0.112218,0.0375602
3594.72,0.111059,0.0553822
3596.65,0.1099,0.0777583
3598.58,0.108741,0.0849187
3600.51,0.107581,0.0721788
3602.43,0.106422,0.0419398
3604.36,0.105262,0.016187
3606.29,0.104103,0.0025395
3608.22,0.102944,0.00177565
3610.15,0.101785,0.00137064
3612.08,0.100625,-0.00699221
3614.01,0.099466,-0.000390345
3615.93,0.0983064,-0.00332871
3617.86,0.0971473,-0.00411863
3619.79,0.0959877,0.00361499
3621.72,0.0948287,0.0053885
3623.65,0.093669,-0.00190265