Folder: olivine/olivine/FTIR (part 4)

File: SC1-2-800C-7hr-c02-copper-baseline.CSV
baseline wavenumber (cm-1),baseline absorbance (cm-1),baseline-subtracted absorbance (cm-1)
3199.379,0.283956,1.63758e-14
3201.308,0.282173,-0.00118798
3203.236,0.280399,0.00187419
3205.165,0.27863,0.00517674
3207.093,0.276869,0.00686252
3209.021,0.275116,0.00746728
3210.95,0.273368,0.0078968
3212.878,0.271628,0.00856118
3214.807,0.269895,0.00884639
3216.736,0.268168,0.00585887
3218.664,0.26645,0.00766641
3220.593,0.264737,0.0100323
3222.521,0.263033,0.0106495
3224.449,0.261335,0.0145556
3226.378,0.259644,0.0119659
3228.306,0.257961,0.00690899
3230.235,0.256284,0.00462709
3232.164,0.254613,0.00574495
3234.092,0.252951,0.00932616
3236.021,0.251295,0.0129003
3237.949,0.249647,0.013196
3239.877,0.248006,0.00966021
3241.806,0.246371,0.00764854
3243.734,0.244744,0.0105446
3245.663,0.243123,0.0142182
3247.592,0.241509,0.0100162
3249.52,0.239903,0.00808256
3251.448,0.238304,0.00756677
3253.377,0.236711,0.00680874
3255.305,0.235126,0.00569706
3257.234,0.233547,0.0068489
3259.162,0.231976,0.0112896
3261.091,0.230412,0.0113727
3263.02,0.228854,0.00815549
3264.948,0.227305,0.010023
3266.876,0.225762,0.0158996
3268.805,0.224225,0.0168335
3270.733,0.222697,0.0101212
3272.662,0.221174,0.0110339
3274.591,0.219659,0.014571
3276.519,0.218151,0.0167201
3278.448,0.21665,0.0168075
3280.376,0.215156,0.0136783
3282.304,0.21367,0.0106509
3284.233,0.21219,0.0117079
3286.161,0.210717,0.015961
3288.09,0.209251,0.0177853
3290.019,0.207792,0.0131324
3291.947,0.206341,0.0114848
3293.875,0.204897,0.0172591
3295.804,0.203459,0.0177995
3297.732,0.202028,0.0166489
3299.661,0.200605,0.0162543
3301.589,0.199188,0.0197716
3303.518,0.197779,0.0271181
3305.447,0.196376,0.0241983
3307.375,0.194981,0.0193472
3309.303,0.193593,0.017898
3311.232,0.192211,0.0217218
3313.16,0.190837,0.0225039
3315.089,0.18947,0.0150749
3317.017,0.18811,0.0115178
3318.946,0.186756,0.0174414
3320.875,0.18541,0.0172523
3322.803,0.184071,0.0178341
3324.731,0.182739,0.0200916
3326.66,0.181414,0.0189432
3328.588,0.180096,0.0195072
3330.517,0.178785,0.0243491
3332.445,0.177481,0.0259759
3334.374,0.176184,0.0238713
3336.302,0.174894,0.0248868
3338.231,0.173611,0.0202459
3340.159,0.172336,0.0213741
3342.088,0.171067,0.0234921
3344.016,0.169805,0.0216914
3345.945,0.16855,0.0230498
3347.873,0.167303,0.0264885
3349.802,0.166062,0.0257193
3351.73,0.164828,0.0193042
3353.659,0.163602,0.0220843
3355.587,0.162382,0.0289983
3357.516,0.16117,0.030981
3359.444,0.159964,0.0292253
3361.373,0.158766,0.029585
3363.302,0.157574,0.03378
3365.23,0.15639,0.0302053
3367.158,0.155213,0.0273014
3369.087,0.154042,0.0290418
3371.015,0.152879,0.0274462
3372.944,0.151723,0.02728
3374.872,0.150574,0.0298071
3376.801,0.149431,0.0293607
3378.729,0.148297,0.0306641
3380.658,0.147168,0.0287335
3382.586,0.146047,0.024956
3384.515,0.144933,0.0262608
3386.443,0.143826,0.0330381
3388.372,0.142726,0.036925
3390.3,0.141634,0.0296726
3392.229,0.140547,0.0245384
3394.157,0.139469,0.0278087
3396.086,0.138397,0.0286626
3398.014,0.137332,0.0344195
3399.943,0.136274,0.045095
3401.871,0.135224,0.043763
3403.8,0.13418,0.0376029
3405.728,0.133143,0.0350242
3407.657,0.132114,0.0336011
3409.585,0.131091,0.0336684
3411.514,0.130075,0.0382153
3413.442,0.129067,0.0390325
3415.371,0.128065,0.037151
3417.299,0.127071,0.0374485
3419.228,0.126084,0.0362835
3421.156,0.125104,0.0376305
3423.085,0.12413,0.0324766
3425.013,0.123164,0.0332094
3426.942,0.122204,0.0391828
3428.87,0.121252,0.0434223
3430.799,0.120307,0.0442919
3432.727,0.119369,0.0420908
3434.656,0.118438,0.0418082
3436.584,0.117514,0.0438062
3438.513,0.116597,0.0449264
3440.441,0.115687,0.0449828
3442.37,0.114784,0.0464857
3444.298,0.113888,0.0442823
3446.227,0.112999,0.0451055
3448.155,0.112117,0.0491662
3450.084,0.111242,0.0456548
3452.012,0.110374,0.0462396
3453.941,0.109513,0.0437419
3455.869,0.10866,0.04382
3457.798,0.107813,0.0451618
3459.726,0.106973,0.0513068
3461.655,0.106141,0.0585651
3463.583,0.105315,0.0595203
3465.512,0.104496,0.0506671
3467.44,0.103685,0.0496621
3469.369,0.10288,0.0541125
3471.297,0.102083,0.0583719
3473.226,0.101292,0.0566159
3475.154,0.100509,0.0555031
3477.083,0.0997327,0.054921
3479.011,0.0989636,0.0549583
3480.94,0.0982011,0.0607771
3482.868,0.097446,0.0625698
3484.797,0.0966976,0.0626747
3486.725,0.0959566,0.0679128
3488.654,0.0952223,0.0650533
3490.582,0.0944953,0.0620409
3492.511,0.0937751,0.0590021
3494.439,0.0930622,0.0551721
3496.368,0.092356,0.0539721
3498.296,0.0916572,0.0595555
3500.225,0.090965,0.0542976
3502.153,0.0902803,0.0472721
3504.082,0.0896023,0.057042
3506.01,0.0889316,0.0655664
3507.939,0.0882676,0.06876
3509.867,0.087611,0.0739186
3511.796,0.0869611,0.0781656
3513.724,0.0863185,0.0807674
3515.653,0.0856827,0.0785761
3517.581,0.0850542,0.080926
3519.51,0.0844324,0.0883806
3521.438,0.083818,0.0894642
3523.367,0.0832103,0.0960911
3525.295,0.08261,0.0969396
3527.224,0.0820164,0.087332
3529.152,0.0814301,0.0878373
3531.081,0.0808505,0.0900174
3533.009,0.0802783,0.0818295
3534.938,0.0797128,0.0730166
3536.866,0.0791547,0.0754237
3538.795,0.0786033,0.0722046
3540.723,0.0780592,0.0695237
3542.652,0.0775219,0.0664038
3544.58,0.0769918,0.0664386
3546.509,0.0764686,0.0698795
3548.437,0.0759526,0.064857
3550.366,0.0754434,0.0595164
3552.294,0.0749415,0.064284
3554.223,0.0744464,0.072973
3556.151,0.0739586,0.0773004
3558.08,0.0734776,0.0875571
3560.008,0.0730038,0.105233
3561.937,0.0725368,0.120045
3563.865,0.0720771,0.12175
3565.794,0.0716242,0.124359
3567.722,0.0711786,0.145064
3569.651,0.0707398,0.159973
3571.579,0.0703082,0.166189
3573.508,0.0698835,0.160657
3575.436,0.069466,0.139494
3577.365,0.0690553,0.108152
3579.293,0.0686519,0.0827149
3581.222,0.0682552,0.0674702
3583.15,0.0678659,0.0563077
3585.079,0.0674833,0.0457421
3587.007,0.067108,0.0547404
3588.936,0.0667396,0.0771117
3590.864,0.0663783,0.0721782
3592.793,0.066024,0.0724659
3594.721,0.0656768,0.0854603
3596.65,0.0653365,0.105841
3598.578,0.0650034,0.11774
3600.507,0.0646771,0.100256
3602.435,0.0643581,0.0660853
3604.364,0.0640459,0.0442888
3606.292,0.0637409,0.0290085
3608.221,0.0634428,0.0291518
3610.149,0.0631519,0.035091
3612.078,0.0628679,0.0314603
3614.006,0.062591,0.0324978
3615.935,0.0623211,0.0234136
3617.863,0.0620583,0.0221502
3619.792,0.0618024,0.0323952
3621.72,0.0615537,0.0300001
3623.649,0.0613119,0.0233371
3625.577,0.0610773,0.0198499
3627.506,0.0608495,0.0180106
3629.434,0.0606289,0.0437023
3631.363,0.0604153,0.0304023
3633.291,0.0602088,0.0164244
3635.22,0.0600092,0.0209501
3637.148,0.0598167,0.0136742
3639.077,0.0596312,0.00825893
3641.005,0.0594528,0.0106267
3642.934,0.0592814,0.0127408
3644.862,0.059117,0.00218727
3646.791,0.0589597,-0.00324224
3648.719,0.0588094,0.0166207
3650.648,0.0586661,0.038703
3652.576,0.0585299,0.0273975
3654.505,0.0584007,0.00518347
3656.433,0.0582786,0.00754587
3658.362,0.0581634,0.00702911
3660.29,0.0580553,0.000257357
3662.219,0.0579543,0.00112054
3664.147,0.0578603,-0.000604675
3666.076,0.0577733,-0.00617621
3668.004,0.0576933,-0.0106054
3669.933,0.0576204,0.00194532
3671.861,0.0575545,0.00974186
3673.79,0.0574957,-0.00852047
3675.718,0.0574439,0.011372
3677.647,0.0573991,0.0184546
3679.575,0.0573613,0.0105859
3681.504,0.0573306,0.00543721
3683.432,0.0573069,0.000499141
3685.361,0.0572903,-0.000992602
3687.289,0.0572807,-0.00980782
3689.218,0.0572781,0.00401654
3691.146,0.0572826,0.0164044
3693.075,0.0572941,0.0134078
3695.003,0.0573126,0.00385606
3696.932,0.0573382,0.0019294
3698.86,0.0573708,0.00189681

File: SC1-2-800C-7hr-c02-copper-high-baseline.CSV
baseline wavenumber (cm-1),baseline absorbance (cm-1),baseline-subtracted absorbance (cm-1)
3399.943,0.181369,1.11022e-16
3401.871,0.180509,-0.0015219
3403.8,0.179648,-0.00786504
3405.728,0.178787,-0.0106196
3407.657,0.177926,-0.0122116
3409.585,0.177066,-0.0123062
3411.514,0.176205,-0.00791414
3413.442,0.175344,-0.00724469
3415.371,0.174483,-0.009267
3417.299,0.173623,-0.00910311
3419.228,0.172762,-0.0103949
3421.156,0.171902,-0.00916743
3423.085,0.171041,-0.0144341
3425.013,0.17018,-0.0138068
3426.942,0.169319,-0.00793192
3428.87,0.168459,-0.0037839
3430.799,0.167598,-0.00299882
3432.727,0.166737,-0.00527737
3434.656,0.165876,-0.00563037
3436.584,0.165016,-0.00369578
3438.513,0.164155,-0.00263192
3440.441,0.163294,-0.00262481
3442.37,0.162433,-0.0011642
3444.298,0.161573,-0.00340282
3446.227,0.160712,-0.00260783
3448.155,0.159852,0.00143178
3450.084,0.158991,-0.00209377
3452.012,0.15813,-0.0015161
3453.941,0.157269,-0.0040138
3455.869,0.156409,-0.0039288
3457.798,0.155548,-0.00257292
3459.726,0.154687,0.00359309
3461.655,0.153826,0.0108794
3463.583,0.152966,0.0118698
3465.512,0.152105,0.00305867
3467.44,0.151244,0.00210283
3469.369,0.150383,0.00660948
3471.297,0.149523,0.0109321
3473.226,0.148662,0.00924646
3475.154,0.147801,0.00821096
3477.083,0.146941,0.00771316
3479.011,0.14608,0.00784188
3480.94,0.145219,0.0137591
3482.868,0.144359,0.0156572
3484.797,0.143498,0.0158747
3486.725,0.142637,0.0212322
3488.654,0.141776,0.0184994
3490.582,0.140916,0.0156205
3492.511,0.140055,0.0127223
3494.439,0.139194,0.00904
3496.368,0.138333,0.0079947
3498.296,0.137473,0.0137399
3500.225,0.136612,0.00865068
3502.153,0.135751,0.00180097
3504.082,0.13489,0.0117538
3506.01,0.13403,0.0204679
3507.939,0.133169,0.0238585
3509.867,0.132309,0.029221
3511.796,0.131448,0.033679
3513.724,0.130587,0.0364988
3515.653,0.129726,0.0345326
3517.581,0.128866,0.0371145
3519.51,0.128005,0.0448082
3521.438,0.127144,0.046138
3523.367,0.126283,0.0530181
3525.295,0.125423,0.0541267
3527.224,0.124562,0.0447865
3529.152,0.123701,0.045566
3531.081,0.12284,0.0480274
3533.009,0.12198,0.0401279
3534.938,0.121119,0.0316104
3536.866,0.120259,0.0343198
3538.795,0.119398,0.0314102
3540.723,0.118537,0.0290458
3542.652,0.117676,0.0262495
3544.58,0.116816,0.0266148
3546.509,0.115955,0.0303933
3548.437,0.115094,0.0257154
3550.366,0.114233,0.0207265
3552.294,0.113373,0.0258528
3554.223,0.112512,0.0349076
3556.151,0.111651,0.0396077
3558.08,0.11079,0.0502442
3560.008,0.10993,0.0683073
3561.937,0.109069,0.0835124
3563.865,0.108209,0.0856187
3565.794,0.107348,0.0886358
3567.722,0.106487,0.109755
3569.651,0.105626,0.125086
3571.579,0.104766,0.131731
3573.508,0.103905,0.126636
3575.436,0.103044,0.105916
3577.365,0.102183,0.0750241
3579.293,0.101323,0.050044
3581.222,0.100462,0.0352636
3583.15,0.0996013,0.0245722
3585.079,0.0987404,0.0144851
3587.007,0.0978799,0.0239685
3588.936,0.097019,0.0468323
3590.864,0.0961585,0.042398
3592.793,0.0952975,0.0431923
3594.721,0.094437,0.0567001
3596.65,0.0935761,0.0776011
3598.578,0.0927156,0.0900282
3600.507,0.0918547,0.0730783
3602.435,0.0909942,0.0394492
3604.364,0.0901332,0.0182015
3606.292,0.0892727,0.00347668
3608.221,0.0884118,0.00418282
3610.149,0.0875513,0.0106916
3612.078,0.0866904,0.0076378
3614.006,0.0858299,0.00925898
3615.935,0.0849689,0.000765784
3617.863,0.0841084,0.000100097
3619.792,0.0832475,0.0109502
3621.72,0.082387,0.00916677
3623.649,0.0815261,0.00312298
3625.577,0.0806656,0.000261603
3627.506,0.0798046,-0.000944524
3629.434,0.0789441,0.0253871
3631.363,0.0780832,0.0127344
3633.291,0.0772227,-0.000589576
3635.22,0.0763618,0.00459745
3637.148,0.0755013,-0.00201036
3639.077,0.0746403,-0.0067502
3641.005,0.0737798,-0.00370028
3642.934,0.0729189,-0.000896757
3644.862,0.0720584,-0.0107541
3646.791,0.0711975,-0.01548
3648.719,0.070337,0.00509314
3650.648,0.069476,0.0278931
3652.576,0.0686155,0.0173118
3654.505,0.0677546,-0.00417044
3656.433,0.0668941,-0.00106968
3658.362,0.0660332,-0.00084065
3660.29,0.0651727,-0.00685997
3662.219,0.0643117,-0.00523693
3664.147,0.0634512,-0.00619565
3666.076,0.0625903,-0.0109933
3668.004,0.0617298,-0.0146419
3669.933,0.0608689,-0.00130316
3671.861,0.0600084,0.00728801
3673.79,0.0591474,-0.0101722
3675.718,0.0582869,0.0105289
3677.647,0.057426,0.0184276
3679.575,0.0565655,0.0113817
3681.504,0.0557046,0.00706326
3683.432,0.0548441,0.00296201
3685.361,0.0539831,0.00231456
3687.289,0.0531226,-0.00564977
3689.218,0.0522617,0.00903296
3691.146,0.0514012,0.0222858
3693.075,0.0505403,0.0201616
3695.003,0.0496798,0.0114889
3696.932,0.0488188,0.0104487
3698.86,0.0479583,0.0113092

File: SC1-2-800C-7hr-c02-copper-low-baseline.CSV
baseline wavenumber (cm-1),baseline absorbance (cm-1),baseline-subtracted absorbance (cm-1)
3199.38,0.283956,1.28231e-14
3201.308,0.281809,-0.000823501
3203.236,0.279673,0.00260015
3205.165,0.277545,0.00626155
3207.093,0.275429,0.00830318
3209.02,0.273322,0.00926098
3210.95,0.271224,0.0100409
3212.88,0.269137,0.0110527
3214.81,0.267058,0.0116827
3216.736,0.26499,0.00903713
3218.664,0.262933,0.0111836
3220.593,0.260884,0.0138859
3222.52,0.258846,0.0148364
3224.449,0.256818,0.0190731
3226.38,0.254799,0.0168113
3228.31,0.252791,0.0120792
3230.235,0.250791,0.0101196
3232.164,0.248801,0.0115569
3234.092,0.246823,0.0154546
3236.02,0.244853,0.0193425
3237.949,0.242894,0.0199491
3239.877,0.240945,0.0167213
3241.81,0.239004,0.015015
3243.73,0.237075,0.0182135
3245.663,0.235154,0.0221869
3247.592,0.233243,0.0182818
3249.52,0.231343,0.0166421
3251.448,0.229453,0.0164175
3253.377,0.227572,0.0159479
3255.305,0.225701,0.0151218
3257.23,0.22384,0.0165565
3259.16,0.221989,0.0212771
3261.091,0.220147,0.0216374
3263.02,0.218315,0.0186946
3264.948,0.216494,0.0208336
3266.88,0.214683,0.0269789
3268.805,0.21288,0.0281787
3270.73,0.211088,0.0217294
3272.66,0.209306,0.0229025
3274.591,0.207533,0.0266971
3276.52,0.205771,0.0291008
3278.448,0.204017,0.0294401
3280.38,0.202275,0.0265599
3282.304,0.200542,0.0237786
3284.23,0.198819,0.025079
3286.16,0.197106,0.0295727
3288.09,0.195402,0.0316348
3290.02,0.193708,0.0272169
3291.947,0.192024,0.0258014
3293.875,0.190351,0.0318049
3295.804,0.188686,0.0325719
3297.732,0.187032,0.0316449
3299.66,0.185388,0.0314712
3301.59,0.183753,0.0352066
3303.518,0.182128,0.0427684
3305.447,0.180513,0.0400611
3307.375,0.178908,0.0354196
3309.303,0.177314,0.0341771
3311.232,0.175728,0.038205
3313.16,0.174153,0.0391882
3315.09,0.172587,0.0319576
3317.02,0.171031,0.028596
3318.946,0.169485,0.0347124
3320.875,0.167949,0.0347133
3322.803,0.166423,0.0354822
3324.73,0.164907,0.0379239
3326.66,0.1634,0.0369571
3328.59,0.161904,0.0376997
3330.52,0.160416,0.0427176
3332.445,0.15894,0.0445173
3334.37,0.157472,0.042583
3336.302,0.156015,0.0437659
3338.23,0.154567,0.0392896
3340.159,0.15313,0.0405796
3342.09,0.151702,0.0428566
3344.02,0.150284,0.041212
3345.945,0.148876,0.0427238
3347.873,0.147478,0.046313
3349.802,0.146089,0.0456915
3351.73,0.144711,0.0394214
3353.659,0.143342,0.0423436
3355.587,0.141984,0.0493968
3357.52,0.140634,0.0515161
3359.44,0.139296,0.049894
3361.373,0.137966,0.0503845
3363.302,0.136646,0.0547076
3365.23,0.135337,0.051258
3367.158,0.134038,0.0484766
3369.087,0.132747,0.0503365
3371.015,0.131468,0.0488577
3372.94,0.130197,0.0488055
3374.87,0.128937,0.0514437
3376.801,0.127686,0.0511057
3378.73,0.126446,0.0525145
3380.658,0.125215,0.0506867
3382.586,0.123994,0.0470091
3384.515,0.122783,0.0484109
3386.44,0.121582,0.0552825
3388.37,0.12039,0.0592609
3390.3,0.119209,0.0520971
3392.23,0.118037,0.0470487
3394.157,0.116876,0.050402
3396.086,0.115723,0.0513361
3398.014,0.114581,0.0571704
3399.94,0.113449,0.0679205
3401.87,0.112327,0.0666602
3403.8,0.111214,0.0605691
3405.728,0.110111,0.0580565
3407.657,0.109018,0.0566967
3409.585,0.107935,0.0568245
3411.514,0.106862,0.0614291
3413.442,0.105799,0.0623011
3415.37,0.104745,0.0604717
3417.3,0.103701,0.0608185
3419.228,0.102667,0.0596998
3421.156,0.101644,0.0610905
3423.085,0.100629,0.0559773
3425.013,0.0996252,0.0567481
3426.942,0.0986305,0.0627568
3428.87,0.0976462,0.0670286
3430.8,0.0966712,0.0679277
3432.73,0.0957065,0.0657533
3434.656,0.0947512,0.0654947
3436.58,0.0938063,0.0675137
3438.513,0.0928707,0.0686522
3440.441,0.0919454,0.0687241
3442.37,0.0910296,0.0702397
3444.298,0.090124,0.0680461
3446.23,0.0892278,0.0688764
3448.155,0.0883419,0.0729413
3450.08,0.0874654,0.0694313
3452.012,0.0865993,0.0700147
3453.941,0.0857425,0.0675128
3455.869,0.084896,0.0675838
3457.798,0.0840589,0.0689159
3459.73,0.0832321,0.0750482
3461.655,0.0824147,0.082291
3463.583,0.0816076,0.0832279
3465.512,0.08081,0.0743535
3467.44,0.0800225,0.0733246
3469.369,0.0792446,0.0777483
3471.297,0.0784768,0.0819782
3473.23,0.0777186,0.0801899
3475.15,0.0769705,0.0790419
3477.083,0.076232,0.0784217
3479.011,0.0755036,0.0784183
3480.94,0.0747847,0.0841935
3482.868,0.0740761,0.0859397
3484.797,0.0733769,0.0859954
3486.725,0.072688,0.0911814
3488.65,0.0720085,0.0882671
3490.58,0.0713392,0.085197
3492.511,0.0706795,0.0820976
3494.44,0.0700299,0.0782044
3496.368,0.0693898,0.0769382
3498.296,0.0687599,0.0824528
3500.225,0.0681396,0.077123
3502.153,0.0675294,0.070023
3504.08,0.0669287,0.0797156
3506.01,0.0663382,0.0881597
3507.94,0.0657573,0.0912703
3509.867,0.0651865,0.0963432
3511.796,0.0646252,0.100501
3513.724,0.0640741,0.103012
3515.653,0.0635325,0.100726
3517.58,0.0630011,0.102979
3519.51,0.0624792,0.110334
3521.438,0.0619675,0.111315
3523.367,0.0614654,0.117836
3525.295,0.0609733,0.118576
3527.224,0.0604909,0.108858
3529.152,0.0600185,0.109249
3531.08,0.0595558,0.111312
3533.009,0.0591031,0.103005
3534.938,0.0586601,0.0940694
3536.866,0.0582271,0.0963513
3538.795,0.0578037,0.0930041
3540.723,0.0573905,0.0901924
3542.652,0.0569868,0.0869388
3544.58,0.0565932,0.0868372
3546.509,0.0562093,0.0901388
3548.437,0.0558354,0.0849743
3550.366,0.0554711,0.0794887
3552.29,0.0551169,0.0841086
3554.223,0.0547724,0.092647
3556.151,0.0544379,0.0968211
3558.08,0.0541131,0.106922
3560.008,0.0537982,0.124439
3561.937,0.0534931,0.139088
3563.865,0.053198,0.140629
3565.79,0.0529125,0.143071
3567.722,0.0526371,0.163605
3569.651,0.0523714,0.178341
3571.579,0.0521156,0.184381
3573.508,0.0518696,0.178671
3575.44,0.0516335,0.157327
3577.365,0.0514072,0.1258
3579.29,0.0511908,0.100176
3581.222,0.0509842,0.0847413
3583.15,0.0507875,0.073386
3585.079,0.0506006,0.0626249
3587.007,0.0504236,0.0714248
3588.94,0.0502564,0.0935949
3590.864,0.0500991,0.0884574
3592.79,0.0499516,0.0885383
3594.72,0.049814,0.101323
3596.65,0.0496862,0.121491
3598.578,0.0495683,0.133176
3600.507,0.0494601,0.115473
3602.435,0.0493619,0.0810814
3604.364,0.0492735,0.0590612
3606.292,0.049195,0.0435544
3608.22,0.0491263,0.0434684
3610.15,0.0490674,0.0491755
3612.078,0.0490184,0.0453097
3614.006,0.0489793,0.0461096
3615.935,0.04895,0.0367848
3617.863,0.0489305,0.035278
3619.792,0.0489209,0.0452768
3621.72,0.0489211,0.0426326
3623.65,0.0489312,0.0357178
3625.577,0.0489512,0.031976
3627.506,0.048981,0.0298791
3629.434,0.0490206,0.0553106
3631.363,0.0490701,0.0417475
3633.29,0.0491294,0.0275037
3635.22,0.0491986,0.0317606
3637.15,0.0492776,0.0242133
3639.077,0.0493665,0.0185236
3641.005,0.0494652,0.0206144
3642.934,0.0495738,0.0224484
3644.862,0.0496922,0.0116121
3646.79,0.0498205,0.00589696
3648.719,0.0499586,0.0254716
3650.65,0.0501066,0.0472626
3652.58,0.0502643,0.035663
3654.505,0.050432,0.0131521
3656.433,0.0506095,0.0152149
3658.362,0.0507969,0.0143956
3660.29,0.0509941,0.00731864
3662.219,0.0512012,0.00787364
3664.147,0.051418,0.00583758
3666.08,0.0516448,-4.77775e-05
3668,0.0518814,-0.00479341
3669.933,0.0521279,0.00743784
3671.861,0.0523841,0.0149123
3673.79,0.0526503,-0.00367512
3675.718,0.0529262,0.0158897
3677.647,0.0532121,0.0226415
3679.575,0.0535078,0.0144395
3681.5,0.0538134,0.00895445
3683.43,0.0541287,0.00367741
3685.361,0.054454,0.0018437
3687.289,0.054789,-0.00731612
3689.218,0.055134,0.00616065
3691.15,0.0554887,0.0181983
3693.075,0.0558534,0.0148485
3695,0.0562278,0.00494087
3696.93,0.0566122,0.00265536
3698.86,0.0570063,0.00226129