Folder: olivine/olivine/FTIR (part 9)

File: SC1-2-800C-7hr-c06-copper-SiO-baseline.CSV
wavenumber (/cm),baseline value (/cm),baseline-subtracted absorbance (/cm),
1625.72,11.2607,5.32907e-15
1627.65,11.2405,0.105704
1629.58,11.2203,0.325109
1631.51,11.2,0.0610516
1633.44,11.1798,-0.267405
1635.37,11.1596,-0.696959
1637.3,11.1394,-0.458479
1639.22,11.1191,-0.0620446
1641.15,11.0989,0.283601
1643.08,11.0787,0.396229
1645.01,11.0585,0.18994
1646.94,11.0382,-0.213373
1648.87,11.018,-0.256461
1650.8,10.9978,-0.197563
1652.72,10.9776,-0.447071
1654.65,10.9573,0.123331
1656.58,10.9371,0.608798
1658.51,10.9169,0.562465
1660.44,10.8967,0.682082
1662.37,10.8764,0.874499
1664.29,10.8562,0.94116
1666.22,10.836,0.724242
1668.15,10.8158,0.572854
1670.08,10.7955,0.594979
1672.01,10.7753,0.802623
1673.94,10.7551,0.511779
1675.87,10.7349,0.497772
1677.79,10.7146,0.919871
1679.72,10.6944,0.78305
1681.65,10.6742,0.525451
1683.58,10.654,0.40309
1685.51,10.6337,0.67204
1687.44,10.6135,0.588009
1689.37,10.5933,0.609032
1691.29,10.5731,0.961526
1693.22,10.5529,1.01303
1695.15,10.5326,0.679337
1697.08,10.5124,0.587861
1699.01,10.4922,0.39786
1700.94,10.472,0.489044
1702.86,10.4517,0.889208
1704.79,10.4315,0.678153
1706.72,10.4113,1.23896
1708.65,10.3911,1.36906
1710.58,10.3708,1.04195
1712.51,10.3506,1.21485
1714.43,10.3304,1.02376
1716.36,10.3102,0.481308
1718.29,10.2899,0.538573
1720.22,10.2697,1.01799
1722.15,10.2495,1.3322
1724.08,10.2293,1.26144
1726.01,10.209,1.20877
1727.93,10.1888,1.17446
1729.86,10.1686,0.988014
1731.79,10.1484,1.3034
1733.72,10.1281,1.86231
1735.65,10.1079,1.61112
1737.58,10.0877,1.54627
1739.51,10.0675,1.52916
1741.43,10.0473,1.83542
1743.36,10.027,1.7666
1745.29,10.0068,1.38301
1747.22,9.98658,1.04903
1749.15,9.96636,1.14437
1751.08,9.94613,1.73336
1753.01,9.92591,2.03737
1754.93,9.90568,2.08763
1756.86,9.88546,2.03182
1758.79,9.86523,2.01807
1760.72,9.84501,1.48677
1762.65,9.82478,1.34398
1764.58,9.80456,1.93888
1766.51,9.78433,1.97357
1768.43,9.76412,1.79044
1770.36,9.74389,1.70023
1772.29,9.72367,1.48919
1774.22,9.70344,1.74054
1776.15,9.68322,2.22131
1778.08,9.66299,2.13678
1780,9.64277,1.81527
1781.93,9.62254,2.29826
1783.86,9.60232,2.54635
1785.79,9.58209,2.24081
1787.72,9.56187,2.21134
1789.65,9.54165,2.34103
1791.58,9.52143,2.35242
1793.5,9.5012,2.09654
1795.43,9.48098,1.97785
1797.36,9.46075,2.04486
1799.29,9.44053,1.90439
1801.22,9.4203,1.99104
1803.15,9.40008,2.35123
1805.08,9.37985,2.34242
1807,9.35963,2.33521
1808.93,9.3394,2.73415
1810.86,9.31919,2.72809
1812.79,9.29896,2.31444
1814.72,9.27874,2.37826
1816.65,9.25851,2.6384
1818.57,9.23829,2.63819
1820.5,9.21806,2.57437
1822.43,9.19784,2.57289
1824.36,9.17761,2.43551
1826.29,9.15739,2.23249
1828.22,9.13716,2.49043
1830.14,9.11694,2.45468
1832.07,9.09671,2.59123
1834,9.0765,2.74518
1835.93,9.05627,2.42802
1837.86,9.03605,2.34354
1839.79,9.01582,2.68328
1841.72,8.9956,3.03089
1843.64,8.97537,2.90704
1845.57,8.95515,2.75198
1847.5,8.93492,2.94422
1849.43,8.9147,2.77228
1851.36,8.89447,2.57882
1853.29,8.87425,2.66691
1855.22,8.85403,2.90739
1857.14,8.83381,3.18969
1859.07,8.81358,3.44945
1861,8.79336,3.09004
1862.93,8.77313,2.80854
1864.86,8.75291,3.2511
1866.79,8.73269,3.30334
1868.71,8.71246,2.78826
1870.64,8.69223,2.57174
1872.57,8.67201,2.7518
1874.5,8.65179,3.18733
1876.43,8.63157,3.14489
1878.36,8.61134,2.77136
1880.29,8.59112,2.85725
1882.21,8.57089,3.19058
1884.14,8.55067,3.13125
1886.07,8.53044,3.17627
1888,8.51022,3.21763
1889.93,8.48999,3.08924
1891.86,8.46977,3.1547
1893.79,8.44954,3.54755
1895.71,8.42932,3.48981
1897.64,8.40909,3.41264
1899.57,8.38888,3.51059
1901.5,8.36865,3.38774
1903.43,8.34843,3.36999
1905.36,8.3282,3.58231
1907.29,8.30798,3.56668
1909.21,8.28775,3.5126
1911.14,8.26753,3.60715
1913.07,8.2473,3.79022
1915,8.22708,3.88641
1916.93,8.20686,3.72893
1918.86,8.18663,3.73453
1920.79,8.16641,3.79036
1922.71,8.14619,3.40059
1924.64,8.12597,3.42615
1926.57,8.10574,3.62231
1928.5,8.08551,3.6894
1930.43,8.06529,3.90033
1932.36,8.04507,4.13269
1934.28,8.02484,4.00271
1936.21,8.00461,4.11436
1938.14,7.98439,3.98273
1940.07,7.96417,3.88252
1942,7.94395,3.97773
1943.93,7.92372,4.07371
1945.86,7.9035,3.99836
1947.78,7.88328,3.70255
1949.71,7.86305,3.68453
1951.64,7.84282,4.03471
1953.57,7.8226,4.57904
1955.5,7.80238,4.82081
1957.43,7.78215,4.31757
1959.35,7.76193,4.08073
1961.28,7.7417,4.19861
1963.21,7.72149,4.42217
1965.14,7.70126,4.40295
1967.07,7.68104,4.02431
1969,7.66081,3.86595
1970.92,7.64059,4.08238
1972.85,7.62036,4.27576
1974.78,7.60014,4.13539
1976.71,7.57991,4.05007
1978.64,7.55969,4.22649
1980.57,7.53946,4.52241
1982.5,7.51924,4.42144
1984.42,7.49901,4.37112
1986.35,7.47879,4.79483
1988.28,7.45857,4.84102
1990.21,7.43835,4.3326
1992.14,7.41812,4.1417
1994.07,7.39789,4.27645
1996,7.37767,4.36829
1997.92,7.35745,4.5698
1999.85,7.33722,4.8197
2001.78,7.317,4.84223
2003.71,7.29677,4.56907
2005.64,7.27655,4.54607
2007.57,7.25633,4.82487
2009.49,7.23611,4.83887
2011.42,7.21588,4.33744
2013.35,7.19566,4.08013
2015.28,7.17543,4.18307
2017.21,7.15521,4.75563
2019.14,7.13498,4.888
2021.07,7.11476,4.81857
2022.99,7.09453,4.92498
2024.92,7.07431,4.75528
2026.85,7.05408,4.54542
2028.78,7.03386,4.70671
2030.71,7.01364,5.02343
2032.64,6.99342,5.10961
2034.57,6.97319,4.92673
2036.49,6.95297,4.97874
2038.42,6.93274,5.07368
2040.35,6.91252,4.98327
2042.28,6.89229,5.1442
2044.21,6.87207,5.02574
2046.14,6.85184,4.57701
2048.07,6.83162,4.61523
2049.99,6.81139,4.5914
2051.92,6.79118,4.52326
2053.85,6.77095,4.55509
2055.78,6.75073,4.23949
2057.71,6.7305,3.82695
2059.64,6.71028,3.52126
2061.57,6.69005,3.27052
2063.49,6.66983,3.05064
2065.42,6.6496,2.89073
2067.35,6.62938,2.61617
2069.28,6.60915,2.32718
2071.21,6.58893,2.1329
2073.14,6.56871,1.95307
2075.06,6.54849,1.84474
2076.99,6.52826,1.75668
2078.92,6.50804,1.61796
2080.85,6.48781,1.47655
2082.78,6.46759,1.35397
2084.71,6.44736,1.26047
2086.64,6.42714,1.14785
2088.56,6.40691,1.01463
2090.49,6.38669,0.954418
2092.42,6.36646,0.907145
2094.35,6.34624,0.838179
2096.28,6.32602,0.819113
2098.21,6.3058,0.751366
2100.14,6.28557,0.655048
2102.06,6.26535,0.59465
2103.99,6.24512,0.555221
2105.92,6.2249,0.509787
2107.85,6.20467,0.481189
2109.78,6.18445,0.44972
2111.71,6.16422,0.394355
2113.63,6.144,0.374333
2115.56,6.12377,0.362945
2117.49,6.10356,0.331389
2119.42,6.08333,0.3256
2121.35,6.06311,0.301434
2123.28,6.04288,0.240136
2125.2,6.02266,0.197811
2127.13,6.00243,0.197207
2129.06,5.98221,0.208961
2130.99,5.96198,0.173211
2132.92,5.94176,0.122496
2134.85,5.92153,0.115393
2136.78,5.90131,0.12236
2138.7,5.88108,0.124728
2140.63,5.86087,0.0981059
2142.56,5.84064,0.0868636
2144.49,5.82042,0.0811601
2146.42,5.80019,0.0495851
2148.35,5.77997,0.0130113

File: SC1-2-800C-7hr-c06-copper.CSV
4.493401e+002,6.000000e+000
4.763391e+002,6.202410e-001
5.033381e+002,4.316008e-001
5.303371e+002,5.951678e-001
5.573361e+002,1.820189e+000
5.843350e+002,1.734131e+000
6.113340e+002,1.751281e+000
6.383330e+002,1.916847e+000
6.653320e+002,1.935640e+000
6.923309e+002,1.912806e+000
7.193300e+002,2.024100e+000
7.463289e+002,1.995998e+000
7.733279e+002,2.021501e+000
8.003269e+002,1.941628e+000
8.273259e+002,2.089758e+000
8.543248e+002,2.027602e+000
8.813238e+002,1.996096e+000
9.083228e+002,2.005898e+000
9.353218e+002,2.085062e+000
9.623207e+002,2.058151e+000
9.893197e+002,1.996547e+000
1.016319e+003,2.022312e+000
1.043318e+003,2.091100e+000
1.070317e+003,2.172154e+000
1.097316e+003,2.118014e+000
1.124315e+003,2.113276e+000
1.151314e+003,2.195043e+000
1.178313e+003,2.229749e+000
1.205312e+003,2.110784e+000
1.232311e+003,2.134745e+000
1.259310e+003,2.086754e+000
1.286308e+003,2.148747e+000
1.313307e+003,2.149264e+000
1.340307e+003,2.145988e+000
1.367305e+003,2.124667e+000
1.394304e+003,2.088074e+000
1.421303e+003,2.179975e+000
1.448302e+003,2.103591e+000
1.475301e+003,2.172124e+000
1.502300e+003,2.051452e+000
1.529299e+003,2.017162e+000
1.556298e+003,1.978537e+000
1.583297e+003,2.118585e+000
1.610296e+003,2.168474e+000
1.637295e+003,2.024669e+000
1.664294e+003,2.245580e+000
1.691293e+003,2.193588e+000
1.718292e+003,2.053881e+000
1.745291e+003,2.164940e+000
1.772290e+003,2.129926e+000
1.799289e+003,2.156057e+000
1.826288e+003,2.164953e+000
1.853287e+003,2.194885e+000
1.880286e+003,2.176524e+000
1.907285e+003,2.260870e+000
1.934284e+003,2.291122e+000
1.961283e+003,2.273862e+000
1.988282e+003,2.344946e+000
2.015281e+003,2.158743e+000
2.042280e+003,2.292890e+000
2.069279e+003,1.679494e+000
2.096278e+003,1.325086e+000
2.123277e+003,1.154508e+000
2.150276e+003,1.050973e+000
2.177275e+003,9.666939e-001
2.204274e+003,8.891909e-001
2.231273e+003,8.154549e-001
2.258272e+003,7.538213e-001
2.285271e+003,6.951899e-001
2.312270e+003,6.500276e-001
2.339269e+003,6.058650e-001
2.366268e+003,5.719765e-001
2.393267e+003,5.114530e-001
2.420266e+003,4.766957e-001
2.447265e+003,4.452030e-001
2.474264e+003,4.248467e-001
2.501262e+003,4.053312e-001
2.528261e+003,3.616578e-001
2.555260e+003,3.363711e-001
2.582260e+003,3.130717e-001
2.609259e+003,2.884900e-001
2.636258e+003,2.707585e-001
2.663256e+003,2.482899e-001
2.690255e+003,2.208740e-001
2.717254e+003,1.908850e-001
2.744253e+003,1.702185e-001
2.771252e+003,1.566799e-001
2.798251e+003,1.471874e-001
2.825250e+003,1.361429e-001
2.852249e+003,1.292853e-001
2.879248e+003,1.108300e-001
2.906247e+003,9.940370e-002
2.933246e+003,9.016652e-002
2.960245e+003,8.014961e-002
2.987244e+003,6.628252e-002
3.014243e+003,4.447188e-002
3.041242e+003,2.260371e-002
3.068241e+003,8.178292e-003
3.095240e+003,1.110795e-004
3.122239e+003,-8.055652e-003
3.149238e+003,-1.339844e-002
3.176237e+003,-2.025979e-002
3.203236e+003,-2.403062e-002
3.230235e+003,-2.822673e-002
3.257234e+003,-3.222071e-002
3.284233e+003,-3.564351e-002
3.311232e+003,-3.847300e-002
3.338231e+003,-4.298931e-002
3.365230e+003,-4.423258e-002
3.392229e+003,-4.857714e-002
3.419228e+003,-4.920888e-002
3.446227e+003,-4.975760e-002
3.473226e+003,-5.109485e-002
3.500225e+003,-5.293685e-002
3.527224e+003,-4.860891e-002
3.554223e+003,-5.306824e-002
3.581222e+003,-5.748175e-002
3.608221e+003,-6.792944e-002
3.635220e+003,-7.007909e-002
3.662219e+003,-7.382464e-002
3.689218e+003,-7.409541e-002
3.716217e+003,-7.680918e-002
3.743216e+003,-8.077218e-002
3.770215e+003,-7.974113e-002
3.797214e+003,-7.982217e-002
3.824213e+003,-7.972328e-002
3.851211e+003,-8.571307e-002
3.878210e+003,-8.442482e-002
3.905209e+003,-8.192264e-002
3.932208e+003,-8.285265e-002
3.959208e+003,-8.589448e-002
3.986206e+003,-8.653071e-002
4.013205e+003,-8.845136e-002
4.040204e+003,-8.978228e-002
4.067203e+003,-8.905827e-002
4.094202e+003,-9.001371e-002
4.121201e+003,-9.172443e-002
4.148200e+003,-9.101930e-002
4.175199e+003,-9.070315e-002
4.202198e+003,-9.139448e-002
4.229197e+003,-9.249332e-002
4.256196e+003,-9.226618e-002
4.283195e+003,-9.287744e-002
4.310194e+003,-9.242133e-002
4.337193e+003,-9.270561e-002
4.364192e+003,-9.272309e-002
4.391191e+003,-9.349620e-002
4.418190e+003,-9.448209e-002
4.445189e+003,-9.340726e-002
4.472188e+003,-9.371915e-002
4.499187e+003,-9.477774e-002
4.526186e+003,-9.400403e-002
4.553185e+003,-9.339806e-002
4.580184e+003,-9.410603e-002
4.607183e+003,-9.359288e-002
4.634182e+003,-9.297604e-002
4.661181e+003,-9.569886e-002
4.688180e+003,-9.407962e-002
4.715179e+003,-9.626392e-002
4.742178e+003,-9.546737e-002
4.769177e+003,-9.510406e-002
4.796176e+003,-9.548647e-002
4.823175e+003,-9.747645e-002
4.850174e+003,-9.571970e-002
4.877173e+003,-9.515599e-002
4.904172e+003,-9.535103e-002
4.931171e+003,-9.564008e-002
4.958169e+003,-9.876466e-002
4.985168e+003,-9.736342e-002
5.012167e+003,-9.405860e-002
5.039167e+003,-9.693798e-002
5.066166e+003,-9.606191e-002
5.093165e+003,-9.706291e-002
5.120164e+003,-9.614466e-002
5.147163e+003,-9.660114e-002
5.174162e+003,-9.529687e-002
5.201161e+003,-9.697047e-002
5.228160e+003,-9.320696e-002
5.255158e+003,-9.514681e-002
5.282157e+003,-9.554894e-002
5.309156e+003,-9.720989e-002
5.336155e+003,-9.354095e-002
5.363154e+003,-9.329672e-002
5.390153e+003,-9.487999e-002
5.417152e+003,-9.311437e-002
5.444151e+003,-9.316985e-002
5.471150e+003,-9.210775e-002
5.498149e+003,-9.194002e-002
5.525148e+003,-9.611835e-002
5.552147e+003,-9.007371e-002
5.579146e+003,-9.101272e-002
5.606145e+003,-9.145778e-002
5.633144e+003,-9.014501e-002
5.660143e+003,-8.764421e-002
5.687142e+003,-8.999720e-002
5.714141e+003,-8.384382e-002
5.741140e+003,-8.121351e-002
5.768139e+003,-8.335731e-002
5.795138e+003,-8.289393e-002
5.822137e+003,-7.875601e-002
5.849136e+003,-7.608234e-002
5.876135e+003,-7.049473e-002
5.903134e+003,-7.059704e-002
5.930133e+003,-6.992745e-002
5.957132e+003,-6.229154e-002
5.984131e+003,-5.737490e-002
6.011130e+003,-5.217291e-002
6.038129e+003,-5.237905e-002
6.065128e+003,-4.974309e-002
6.092127e+003,-3.528368e-002
6.119126e+003,-2.996302e-002
6.146125e+003,-2.244327e-002
6.173124e+003,-1.178012e-002
6.200123e+003,-5.402624e-003
6.227122e+003,-7.306533e-004
6.254121e+003,1.081932e-002
6.281120e+003,2.829533e-002
6.308119e+003,3.463297e-002
6.335118e+003,4.953213e-002
6.362117e+003,5.490519e-002
6.389116e+003,7.785100e-002
6.416115e+003,8.205909e-002
6.443113e+003,1.079665e-001
6.470112e+003,1.250946e-001
6.497111e+003,1.397685e-001
6.524110e+003,1.611647e-001
6.551109e+003,1.857751e-001
6.578108e+003,2.003707e-001
6.605107e+003,2.240887e-001
6.632106e+003,2.489946e-001
6.659105e+003,2.712349e-001
6.686104e+003,2.966221e-001
6.713104e+003,3.420663e-001
6.740102e+003,3.366728e-001
6.767101e+003,3.928976e-001
6.794100e+003,4.196742e-001
6.821099e+003,4.643077e-001
6.848098e+003,4.970350e-001
6.875097e+003,5.298566e-001
6.902096e+003,5.499333e-001
6.929095e+003,5.771844e-001
6.956094e+003,6.308774e-001
6.983093e+003,6.557984e-001
7.010092e+003,7.338650e-001
7.037091e+003,8.171183e-001
7.064090e+003,7.914333e-001
7.091089e+003,8.044008e-001
7.118088e+003,8.912097e-001
7.145087e+003,9.032313e-001
7.172086e+003,9.633323e-001
7.199085e+003,1.011692e+000
7.226084e+003,1.066665e+000
7.253083e+003,9.987615e-001
7.280082e+003,1.043200e+000
7.307081e+003,1.171315e+000
7.334080e+003,1.119514e+000
7.361079e+003,1.024855e+000
7.388078e+003,1.182744e+000
7.415077e+003,1.501339e+000
7.442076e+003,1.190876e+000
7.469075e+003,1.273836e+000
7.496074e+003,1.287380e+000
7.523073e+003,1.560264e+000
7.550072e+003,2.166817e+000
7.577071e+003,1.219085e+000
7.604070e+003,1.306756e+000
7.631068e+003,1.488562e+000
7.658067e+003,1.215408e+000
7.685066e+003,1.339743e+000
7.712065e+003,2.041201e+000
7.739064e+003,6.000000e+000
7.766063e+003,1.040035e+000
7.793063e+003,1.195566e+000
7.820062e+003,1.012609e+000
7.847061e+003,1.459135e+000
7.874060e+003,1.241878e+000
7.901059e+003,2.678803e+000
7.928057e+003,8.099152e-001
7.955056e+003,6.000000e+000
7.982055e+003,1.551226e+000
8.009054e+003,1.070871e+000
8.036053e+003,1.337163e+000
8.063052e+003,6.213569e-001
8.090051e+003,1.602807e+000
8.117050e+003,1.331304e+000
8.144049e+003,1.105333e+000
8.171048e+003,6.406978e-001
8.198047e+003,7.576017e-001
8.225046e+003,9.104263e-001
8.252045e+003,1.036276e+000
8.279044e+003,6.375737e-001
8.306043e+003,7.642164e-001
8.333042e+003,1.180080e+000
8.360041e+003,1.073541e+000
8.387040e+003,3.951517e-001
8.414039e+003,8.177335e-001
8.441038e+003,9.701324e-001
8.468037e+003,3.982198e-001
8.495036e+003,6.000000e+000
8.500821e+003,8.511117e-001

File: SC1-2-800C-7hr-c08-copper-baseline-high.CSV
wavenumber (/cm),baseline value (/cm),baseline-subtracted absorbance (/cm),
3149.24,0.38622,-0.000930001
3151.17,0.383757,0.00408063
3153.09,0.381304,0.00378852
3155.02,0.378862,0.00237415
3156.95,0.376427,0.00342212
3158.88,0.374001,0.0014192
3160.81,0.371586,0.000957269
3162.74,0.36918,0.00441881
3164.67,0.366784,0.00313307
3166.59,0.364397,0.00136239
3168.52,0.362018,0.00263677
3170.45,0.359649,0.00286267
3172.38,0.35729,0.00435567
3174.31,0.354939,0.00551404
3176.24,0.352599,0.00488989
3178.17,0.350267,0.00700196
3180.09,0.347946,0.0097418
3182.02,0.345634,0.0068835
3183.95,0.34333,0.00559038
3185.88,0.341036,0.00613263
3187.81,0.338752,0.00678161
3189.74,0.336476,0.00807136
3191.66,0.334211,0.0100056
3193.59,0.331953,0.0132361
3195.52,0.329707,0.0120626
3197.45,0.32747,0.00971627
3199.38,0.325241,0.00903972
3201.31,0.323021,0.0103042
3203.24,0.320812,0.0134297
3205.16,0.318611,0.0174238
3207.09,0.31642,0.0195021
3209.02,0.314239,0.0182975
3210.95,0.312066,0.0182754
3212.88,0.309904,0.0225955
3214.81,0.30775,0.0255548
3216.74,0.305605,0.023717
3218.66,0.30347,0.0260445
3220.59,0.301344,0.0273397
3222.52,0.299228,0.0247299
3224.45,0.297122,0.0243991
3226.38,0.295024,0.0231363
3228.31,0.292936,0.0205787
3230.24,0.290857,0.0225444
3232.16,0.288787,0.0248363
3234.09,0.286727,0.0297363
3236.02,0.284676,0.035145
3237.95,0.282635,0.0325159
3239.88,0.280604,0.0285412
3241.81,0.27858,0.029356
3243.73,0.276568,0.0312304
3245.66,0.274563,0.0315307
3247.59,0.272568,0.0307922
3249.52,0.270583,0.0280236
3251.45,0.268607,0.0300067
3253.38,0.26664,0.0300472
3255.3,0.264684,0.0279289
3257.23,0.262735,0.0308704
3259.16,0.260797,0.0306251
3261.09,0.258867,0.0286794
3263.02,0.256947,0.0305007
3264.95,0.255037,0.0343803
3266.88,0.253136,0.0340127
3268.8,0.251244,0.0313755
3270.73,0.249362,0.0283844
3272.66,0.247488,0.0305208
3274.59,0.245624,0.0348544
3276.52,0.24377,0.0364036
3278.45,0.241925,0.0351651
3280.38,0.240089,0.0323279
3282.3,0.238264,0.0346314
3284.23,0.236446,0.0378508
3286.16,0.234639,0.0372771
3288.09,0.23284,0.0382803
3290.02,0.231051,0.03827
3291.95,0.229272,0.0398586
3293.88,0.227502,0.0436419
3295.8,0.22574,0.0406069
3297.73,0.223989,0.0369896
3299.66,0.222247,0.0378907
3301.59,0.220514,0.0404641
3303.52,0.21879,0.0436947
3305.45,0.217076,0.0418967
3307.38,0.215371,0.0386511
3309.3,0.213676,0.0428575
3311.23,0.21199,0.0477837
3313.16,0.210314,0.0465235
3315.09,0.208646,0.0421366
3317.02,0.206988,0.0423346
3318.95,0.205339,0.0444729
3320.88,0.203699,0.0449715
3322.8,0.20207,0.0446501
3324.73,0.20045,0.0424318
3326.66,0.198838,0.0418439
3328.59,0.197236,0.0431291
3330.52,0.195643,0.0483635
3332.45,0.194061,0.0493884
3334.37,0.192486,0.0477614
3336.3,0.190922,0.0496161
3338.23,0.189367,0.0467297
3340.16,0.187821,0.0453564
3342.09,0.186284,0.0487349
3344.02,0.184758,0.0495384
3345.95,0.183239,0.0505997
3347.87,0.181731,0.0498
3349.8,0.180232,0.0495351
3351.73,0.178743,0.0485237
3353.66,0.177262,0.0480445
3355.59,0.175791,0.0525809
3357.52,0.174329,0.0560267
3359.44,0.172877,0.0559846
3361.37,0.171434,0.0565157
3363.3,0.17,0.0593795
3365.23,0.168576,0.0583648
3367.16,0.167161,0.0548132
3369.09,0.165756,0.0546503
3371.01,0.16436,0.0539209
3372.94,0.162972,0.0528973
3374.87,0.161595,0.0516074
3376.8,0.160227,0.0508987
3378.73,0.158868,0.0546457
3380.66,0.157519,0.0575188
3382.59,0.156179,0.0569041
3384.51,0.154848,0.0546544
3386.44,0.153527,0.0575579
3388.37,0.152214,0.0603314
3390.3,0.150912,0.0585473
3392.23,0.149618,0.0564299
3394.16,0.148335,0.0564935
3396.09,0.14706,0.0576462
3398.01,0.145795,0.061045
3399.94,0.144538,0.0679345
3401.87,0.143292,0.0703756
3403.8,0.142055,0.0661537
3405.73,0.140827,0.0659358
3407.66,0.139608,0.0670905
3409.59,0.138399,0.0663955
3411.51,0.137199,0.0687616
3413.44,0.136009,0.0666201
3415.37,0.134828,0.0676519
3417.3,0.133656,0.069581
3419.23,0.132493,0.0693215
3421.16,0.131341,0.0696318
3423.09,0.130197,0.0722385
3425.01,0.129063,0.07398
3426.94,0.127937,0.0737412
3428.87,0.126822,0.0760504
3430.8,0.125715,0.0764232
3432.73,0.124619,0.0756534
3434.66,0.123531,0.0761757
3436.58,0.122453,0.0830578
3438.51,0.121383,0.0881809
3440.44,0.120324,0.0857311
3442.37,0.119274,0.0869201
3444.3,0.118233,0.0851764
3446.23,0.117201,0.0824095
3448.16,0.116179,0.0900128
3450.08,0.115166,0.0931921
3452.01,0.114163,0.0911401
3453.94,0.113169,0.0884434
3455.87,0.112184,0.0910503
3457.8,0.111209,0.0902717
3459.73,0.110243,0.0907604
3461.66,0.109286,0.0962731
3463.58,0.108339,0.0982274
3465.51,0.107401,0.0934596
3467.44,0.106472,0.0944866
3469.37,0.105553,0.0991451
3471.3,0.104643,0.100882
3473.23,0.103742,0.101422
3475.15,0.102851,0.10075
3477.08,0.101969,0.0979077
3479.01,0.101097,0.100136
3480.94,0.100233,0.107258
3482.87,0.0993796,0.109724
3484.8,0.0985349,0.104655
3486.72,0.0977,0.104569
3488.65,0.096874,0.106254
3490.58,0.0960578,0.10485
3492.51,0.0952505,0.102758
3494.44,0.094453,0.101238
3496.37,0.0936644,0.0995742
3498.3,0.0928856,0.101179
3500.22,0.0921157,0.0957687
3502.15,0.0913556,0.0909248
3504.08,0.0906044,0.0952998
3506.01,0.089863,0.0993263
3507.94,0.0891305,0.0969586
3509.87,0.0884078,0.101742
3511.8,0.087694,0.110152
3513.72,0.08699,0.11023
3515.65,0.086295,0.109489
3517.58,0.0856096,0.116375
3519.51,0.0849333,0.122537
3521.44,0.0842666,0.126304
3523.37,0.083609,0.132146
3525.3,0.0829611,0.132674
3527.22,0.0823221,0.126521
3529.15,0.0816929,0.124378
3531.08,0.0810727,0.12059
3533.01,0.0804621,0.113133
3534.94,0.0798606,0.105508
3536.87,0.0792688,0.104089
3538.8,0.078686,0.10303
3540.72,0.0781128,0.101978
3542.65,0.0775487,0.100199
3544.58,0.0769943,0.0975514
3546.51,0.0764489,0.0935425
3548.44,0.0759131,0.087979
3550.37,0.0753864,0.0831696
3552.29,0.0748694,0.0884335
3554.22,0.0743614,0.0987464
3556.15,0.073863,0.105426
3558.08,0.0733738,0.113292
3560.01,0.0728941,0.127653
3561.94,0.0724235,0.146622
3563.86,0.0719626,0.155092
3565.79,0.0715107,0.155921
3567.72,0.0710685,0.177644
3569.65,0.0706353,0.196088
3571.58,0.0702117,0.203782
3573.51,0.0697973,0.197417
3575.44,0.0693924,0.170648
3577.36,0.0689967,0.133959
3579.29,0.0686105,0.104429
3581.22,0.0682335,0.0870541
3583.15,0.067866,0.0787002
3585.08,0.0675077,0.0676055
3587.01,0.0671589,0.0643401
3588.94,0.0668193,0.0823604
3590.86,0.0664892,0.0858523
3592.79,0.0661683,0.08947
3594.72,0.0658569,0.109713
3596.65,0.0655547,0.13277
3598.58,0.065262,0.134056
3600.51,0.0649786,0.113372
3602.43,0.0647046,0.080675
3604.36,0.0644398,0.0572928
3606.29,0.0641845,0.0460531
3608.22,0.0639384,0.0443735
3610.15,0.0637018,0.0381606
3612.08,0.0634744,0.0297359
3614.01,0.0632565,0.0364645
3615.93,0.0630479,0.0316074
3617.86,0.0628487,0.0275516
3619.79,0.0626587,0.0351776
3621.72,0.0624782,0.0358084
3623.65,0.062307,0.0301175
3625.58,0.0621452,0.0268263
3627.51,0.0619926,0.0171664
3629.43,0.0618495,0.0326178
3631.36,0.0617157,0.0332434
3633.29,0.0615913,0.0221442
3635.22,0.0614762,0.0256809
3637.15,0.0613704,0.0247157
3639.08,0.061274,0.0218686
3641.01,0.061187,0.0191258
3642.93,0.0611093,0.018124
3644.86,0.061041,0.010783
3646.79,0.060982,0.000408398
3648.72,0.0609324,0.00602256
3650.65,0.0608921,0.0293632
3652.58,0.0608611,0.0243395
3654.51,0.0608395,0.00331036
3656.43,0.0608273,0.0117022
3658.36,0.0608244,0.0170417
3660.29,0.0608309,0.0114732
3662.22,0.0608467,0.0131829
3664.15,0.0608719,0.010284
3666.08,0.0609064,-0.000233235
3668,0.0609503,-0.00731036
3669.93,0.0610035,0.00936237
3671.86,0.0610661,0.0209318
3673.79,0.0611381,0.00218045
3675.72,0.0612193,0.0177532
3677.65,0.06131,0.0166315
3679.57,0.0614099,0.00719868
3681.5,0.0615193,0.00720203
3683.43,0.0616379,0.00406356
3685.36,0.061766,6.35611e-05
3687.29,0.0619034,-0.0102057
3689.22,0.0620501,0.00217153
3691.15,0.0622062,0.0120205
3693.07,0.0623717,0.00850874
3695,0.0625464,0.000294471
3696.93,0.0627306,0.000961387

File: SC1-2-800C-7hr-c08-copper-baseline-low.CSV
wavenumber (/cm),baseline value (/cm),baseline-subtracted absorbance (/cm),
3450.08,0.203679,0.00467896
3452.01,0.202455,0.00284842
3453.94,0.20123,0.000382698
3455.87,0.200005,0.0032297
3457.8,0.19878,0.0027007
3459.73,0.197555,0.00344824
3461.66,0.19633,0.00922926
3463.58,0.195105,0.0114612
3465.51,0.19388,0.0069804
3467.44,0.192655,0.0083036
3469.37,0.19143,0.0132679
3471.3,0.190205,0.0153194
3473.23,0.18898,0.0161843
3475.15,0.187755,0.0158457
3477.08,0.18653,0.0133466
3479.01,0.185305,0.0159273
3480.94,0.18408,0.0234115
3482.87,0.182855,0.0262484
3484.8,0.18163,0.0215594
3486.72,0.180406,0.0218632
3488.65,0.17918,0.0239482
3490.58,0.177956,0.0229526
3492.51,0.17673,0.0212778
3494.44,0.175506,0.0201857
3496.37,0.17428,0.0189582
3498.3,0.173056,0.0210087
3500.22,0.171831,0.0160538
3502.15,0.170606,0.0116745
3504.08,0.169381,0.0165236
3506.01,0.168156,0.0210333
3507.94,0.166931,0.0191584
3509.87,0.165706,0.0244435
3511.8,0.164481,0.0333657
3513.72,0.163256,0.0339636
3515.65,0.162031,0.033753
3517.58,0.160806,0.0411785
3519.51,0.159581,0.047889
3521.44,0.158356,0.0522143
3523.37,0.157131,0.058624
3525.3,0.155906,0.0597289
3527.22,0.154681,0.054162
3529.15,0.153456,0.052614
3531.08,0.152231,0.0494311
3533.01,0.151007,0.0425884
3534.94,0.149781,0.0355872
3536.87,0.148557,0.0348013
3538.8,0.147331,0.0343845
3540.72,0.146107,0.0339843
3542.65,0.144881,0.0328665
3544.58,0.143657,0.0308888
3546.51,0.142432,0.0275599
3548.44,0.141207,0.0226853
3550.37,0.139982,0.0185744
3552.29,0.138757,0.0245459
3554.22,0.137532,0.0355761
3556.15,0.136307,0.0429818
3558.08,0.135082,0.0515841
3560.01,0.133857,0.0666897
3561.94,0.132632,0.0864134
3563.86,0.131407,0.0956473
3565.79,0.130182,0.0972501
3567.72,0.128957,0.119755
3569.65,0.127732,0.138991
3571.58,0.126507,0.147487
3573.51,0.125282,0.141932
3575.44,0.124057,0.115983
3577.36,0.122832,0.0801234
3579.29,0.121608,0.0514315
3581.22,0.120382,0.0349053
3583.15,0.119158,0.0274086
3585.08,0.117932,0.0171809
3587.01,0.116708,0.0147913
3588.94,0.115482,0.0336973
3590.86,0.114258,0.0380838
3592.79,0.113033,0.0426058
3594.72,0.111808,0.0637622
3596.65,0.110583,0.087742
3598.58,0.109358,0.0899597
3600.51,0.108133,0.0702177
3602.43,0.106908,0.0384715
3604.36,0.105683,0.0160498
3606.29,0.104458,0.00577942
3608.22,0.103233,0.00507909
3610.15,0.102008,-0.000145774
3612.08,0.100783,-0.00757257
3614.01,0.0995583,0.00016273
3615.93,0.098333,-0.0036777
3617.86,0.0971084,-0.00670808
3619.79,0.0958831,0.00195326
3621.72,0.0946584,0.00362822
3623.65,0.0934332,-0.00100873