Folder: olivine/olivine/FTIR (part 10)

File: SC1-2-800C-7hr-c08-copper-baseline.CSV
baseline wavenumber (cm-1),baseline absorbance (cm-1),baseline-subtracted absorbance (cm-1)
3199.379,0.33428,2.25375e-14
3201.308,0.332324,0.00100147
3203.236,0.330375,0.00386641
3205.165,0.328432,0.00760221
3207.093,0.326498,0.00942459
3209.021,0.32457,0.00796641
3210.95,0.322649,0.00769293
3212.878,0.320735,0.011764
3214.807,0.318828,0.0144765
3216.736,0.316927,0.0123943
3218.664,0.315035,0.0144798
3220.593,0.313149,0.0155352
3222.521,0.31127,0.012688
3224.449,0.309399,0.0121222
3226.378,0.307534,0.0106264
3228.306,0.305677,0.00783843
3230.235,0.303826,0.00957586
3232.164,0.301981,0.0116418
3234.092,0.300145,0.0163184
3236.021,0.298315,0.0215058
3237.949,0.296493,0.0186579
3239.877,0.294678,0.0144667
3241.806,0.292869,0.0150672
3243.734,0.291068,0.0167296
3245.663,0.289273,0.0168202
3247.592,0.287486,0.0158743
3249.52,0.285706,0.0129008
3251.448,0.283933,0.0146812
3253.377,0.282166,0.0145213
3255.305,0.280407,0.012205
3257.234,0.278655,0.0149507
3259.162,0.27691,0.0145121
3261.091,0.275172,0.0123752
3263.02,0.27344,0.0140076
3264.948,0.271716,0.0177008
3266.876,0.27,0.0171491
3268.805,0.268289,0.01433
3270.733,0.266587,0.0111594
3272.662,0.264891,0.0131186
3274.591,0.263201,0.0172773
3276.519,0.26152,0.0186539
3278.448,0.259845,0.0172452
3280.376,0.258177,0.01424
3282.304,0.256517,0.0163779
3284.233,0.254863,0.0194341
3286.161,0.253217,0.0186993
3288.09,0.251577,0.0195439
3290.019,0.249944,0.0193771
3291.947,0.248318,0.0208117
3293.875,0.2467,0.0244434
3295.804,0.245088,0.021259
3297.732,0.243484,0.0174946
3299.661,0.241887,0.0182509
3301.589,0.240297,0.0206819
3303.518,0.238713,0.0237723
3305.447,0.237136,0.0218364
3307.375,0.235567,0.0184553
3309.303,0.234005,0.0225285
3311.232,0.23245,0.0273238
3313.16,0.230902,0.0259352
3315.089,0.22936,0.0214219
3317.017,0.227827,0.021496
3318.946,0.226299,0.0235128
3320.875,0.224779,0.023892
3322.803,0.223266,0.0234537
3324.731,0.221761,0.0211207
3326.66,0.220261,0.0204205
3328.588,0.21877,0.0215957
3330.517,0.217284,0.0267224
3332.445,0.215807,0.0276419
3334.374,0.214336,0.0259118
3336.302,0.212872,0.0276658
3338.231,0.211415,0.0246809
3340.159,0.209966,0.0232115
3342.088,0.208523,0.0264962
3344.016,0.207088,0.0272082
3345.945,0.205659,0.0281803
3347.873,0.204238,0.0272938
3349.802,0.202823,0.0269443
3351.73,0.201416,0.0258507
3353.659,0.200015,0.0252916
3355.587,0.198622,0.0297504
3357.516,0.197235,0.0331209
3359.444,0.195856,0.0330059
3361.373,0.194483,0.0334663
3363.302,0.193118,0.0362618
3365.23,0.19176,0.0351811
3367.158,0.190409,0.0315658
3369.087,0.189064,0.0313415
3371.015,0.187727,0.0305531
3372.944,0.186397,0.0294728
3374.872,0.185074,0.0281285
3376.801,0.183758,0.0273676
3378.729,0.182449,0.0310649
3380.658,0.181147,0.0338905
3382.586,0.179852,0.0332307
3384.515,0.178564,0.0309381
3386.443,0.177284,0.0338011
3388.372,0.176009,0.0365364
3390.3,0.174743,0.0347163
3392.229,0.173483,0.0325654
3394.157,0.17223,0.0325978
3396.086,0.170984,0.0337215
3398.014,0.169746,0.0370937
3399.943,0.168514,0.0439589
3401.871,0.16729,0.046378
3403.8,0.166072,0.0421364
3405.728,0.164862,0.0419012
3407.657,0.163658,0.0430408
3409.585,0.162462,0.0423331
3411.514,0.161272,0.0446888
3413.442,0.16009,0.0425392
3415.371,0.158914,0.0435653
3417.299,0.157746,0.0454909
3419.228,0.156585,0.0452303
3421.156,0.155431,0.0455417
3423.085,0.154283,0.0481519
3425.013,0.153143,0.0498993
3426.942,0.15201,0.0496686
3428.87,0.150884,0.0519882
3430.799,0.149765,0.0523737
3432.727,0.148653,0.051619
3434.656,0.147548,0.0521587
3436.584,0.14645,0.0590605
3438.513,0.145359,0.0642056
3440.441,0.144275,0.0617802
3442.37,0.143198,0.0629959
3444.298,0.142128,0.0612811
3446.227,0.141065,0.0585456
3448.155,0.14001,0.0661825
3450.084,0.138961,0.0693977
3452.012,0.137919,0.0673839
3453.941,0.136884,0.0647278
3455.869,0.135857,0.0673776
3457.798,0.134836,0.0666442
3459.726,0.133823,0.0671804
3461.655,0.132816,0.0727429
3463.583,0.131817,0.0747494
3465.512,0.130824,0.0700361
3467.44,0.129839,0.0711198
3469.369,0.12886,0.0758374
3471.297,0.127889,0.0776354
3473.226,0.126925,0.0782396
3475.154,0.125968,0.0776334
3477.083,0.125017,0.0748596
3479.011,0.124074,0.0771585
3480.94,0.123138,0.0843539
3482.868,0.122209,0.0868951
3484.797,0.121286,0.0819032
3486.725,0.120372,0.0818972
3488.654,0.119463,0.0836651
3490.582,0.118563,0.0823457
3492.511,0.117668,0.0803398
3494.439,0.116782,0.0789098
3496.368,0.115901,0.0773372
3498.296,0.115029,0.0790356
3500.225,0.114163,0.0737216
3502.153,0.113304,0.0689762
3504.082,0.112452,0.073452
3506.01,0.111608,0.0775816
3507.939,0.11077,0.0753194
3509.867,0.109939,0.0802103
3511.796,0.109115,0.088731
3513.724,0.108299,0.0889207
3515.653,0.107489,0.0882946
3517.581,0.106687,0.0952977
3519.51,0.105891,0.101579
3521.438,0.105103,0.105468
3523.367,0.104321,0.111434
3525.295,0.103547,0.112088
3527.224,0.10278,0.106063
3529.152,0.10202,0.104051
3531.081,0.101266,0.100396
3533.009,0.10052,0.093075
3534.938,0.0997806,0.0855878
3536.866,0.0990486,0.0843093
3538.795,0.0983233,0.0833926
3540.723,0.0976053,0.0824856
3542.652,0.0968941,0.0808538
3544.58,0.0961902,0.0783554
3546.509,0.095493,0.0744984
3548.437,0.0948032,0.0690889
3550.366,0.0941201,0.0644359
3552.294,0.0934444,0.0698585
3554.223,0.0927753,0.0803324
3556.151,0.0921137,0.0871752
3558.08,0.0914587,0.0952071
3560.008,0.0908111,0.109736
3561.937,0.0901702,0.128875
3563.865,0.0895366,0.137518
3565.794,0.0889098,0.138522
3567.722,0.0882903,0.160422
3569.651,0.0876776,0.179045
3571.579,0.0870722,0.186922
3573.508,0.0864735,0.180741
3575.436,0.0858822,0.154158
3577.365,0.0852975,0.117658
3579.293,0.0847203,0.0883188
3581.222,0.0841497,0.0711379
3583.15,0.0835865,0.0629797
3585.079,0.08303,0.0520832
3587.007,0.0824809,0.0490181
3588.936,0.0819385,0.0672412
3590.864,0.0814034,0.0709381
3592.793,0.0808751,0.0747632
3594.721,0.0803541,0.095216
3596.65,0.0798398,0.118485
3598.578,0.0793329,0.119985
3600.507,0.0788327,0.0995176
3602.435,0.0783398,0.0670397
3604.364,0.0778537,0.0438788
3606.292,0.0773749,0.0328626
3608.221,0.0769029,0.0314091
3610.149,0.0764381,0.0254243
3612.078,0.0759802,0.0172302
3614.006,0.0755295,0.0241915
3615.935,0.0750856,0.0195697
3617.863,0.074649,0.0157513
3619.792,0.0742192,0.0236172
3621.72,0.0737966,0.0244901
3623.649,0.0733809,0.0190436
3625.577,0.0729724,0.0159991
3627.506,0.0725707,0.00658829
3629.434,0.0721763,0.022291
3631.363,0.0717887,0.0231704
3633.291,0.0714083,0.0123271
3635.22,0.0710348,0.0161223
3637.148,0.0706685,0.0154176
3639.077,0.0703091,0.0128336
3641.005,0.0699568,0.010356
3642.934,0.0696115,0.00962185
3644.862,0.0692733,0.00255073
3646.791,0.068942,-0.0075516
3648.719,0.0686179,-0.00166296
3650.648,0.0683006,0.0219546
3652.576,0.0679906,0.01721
3654.505,0.0676875,-0.00353755
3656.433,0.0673915,0.00513808
3658.362,0.0671024,0.0107638
3660.29,0.0668205,0.00548366
3662.219,0.0665455,0.00748414
3664.147,0.0662776,0.00487823
3666.076,0.0660167,-0.0053435
3668.004,0.0657629,-0.012123
3669.933,0.0655161,0.00484986
3671.861,0.0652763,0.0167215
3673.79,0.0650436,-0.00172504
3675.718,0.0648179,0.0141546
3677.647,0.0645992,0.0133423
3679.575,0.0643876,0.004221
3681.504,0.064183,0.00453836
3683.432,0.0639854,0.00171606
3685.361,0.0637949,-0.00196529
3687.289,0.0636114,-0.0119138
3689.218,0.0634349,0.000786759
3691.146,0.0632655,0.0109612
3693.075,0.0631031,0.00777732
3695.003,0.0629478,-0.000106883
3696.932,0.0627994,0.000892585
3698.86,0.0626582,0.00103384

File: SC1-2-800C-7hr-c08-copper-high-baseline.CSV
baseline wavenumber (cm-1),baseline absorbance (cm-1),baseline-subtracted absorbance (cm-1)
3399.943,0.212473,2.22045e-16
3401.871,0.211457,0.00221099
3403.8,0.21044,-0.00223169
3405.728,0.209424,-0.00266095
3407.657,0.208407,-0.00170841
3409.585,0.207391,-0.00259607
3411.514,0.206374,-0.000413365
3413.442,0.205358,-0.00272881
3415.371,0.204341,-0.00186168
3417.299,0.203325,-8.78643e-05
3419.228,0.202308,-0.000493349
3421.156,0.201292,-0.000319659
3423.085,0.200275,0.00215972
3425.013,0.199259,0.00378343
3426.942,0.198242,0.00343607
3428.87,0.197226,0.00564605
3430.799,0.196209,0.00592893
3432.727,0.195193,0.00507866
3434.656,0.194177,0.00552984
3436.584,0.19316,0.0123502
3438.513,0.192144,0.0174208
3440.441,0.191127,0.0149279
3442.37,0.190111,0.0160831
3444.298,0.189094,0.014315
3446.227,0.188078,0.0115331
3448.155,0.187061,0.0191308
3450.084,0.186045,0.0223137
3452.012,0.185029,0.0202747
3453.941,0.184012,0.0176004
3455.869,0.182996,0.020239
3457.798,0.181979,0.0195015
3459.726,0.180963,0.0200406
3461.655,0.179946,0.025613
3463.583,0.17893,0.0276365
3465.512,0.177913,0.0229472
3467.44,0.176897,0.024062
3469.369,0.17588,0.0288177
3471.297,0.174864,0.0306607
3473.226,0.173847,0.0313171
3475.154,0.172831,0.0307701
3477.083,0.171814,0.0280625
3479.011,0.170798,0.0304347
3480.94,0.169781,0.0377104
3482.868,0.168765,0.0403389
3484.797,0.167748,0.0354413
3486.725,0.166732,0.0355367
3488.654,0.165715,0.0374131
3490.582,0.164699,0.036209
3492.511,0.163682,0.0343257
3494.439,0.162666,0.0330252
3496.368,0.16165,0.0315892
3498.296,0.160633,0.0334312
3500.225,0.159617,0.0282678
3502.153,0.1586,0.02368
3504.082,0.157584,0.0283205
3506.01,0.156567,0.0326219
3507.939,0.155551,0.0305385
3509.867,0.154534,0.0356151
3511.796,0.153518,0.0443287
3513.724,0.152502,0.0447182
3515.653,0.151485,0.0442991
3517.581,0.150469,0.0515161
3519.51,0.149452,0.0580181
3521.438,0.148436,0.0621349
3523.367,0.147419,0.0683361
3525.295,0.146403,0.0692326
3527.224,0.145386,0.0634571
3529.152,0.14437,0.0617007
3531.081,0.143353,0.0583092
3533.009,0.142337,0.0512581
3534.938,0.14132,0.0440483
3536.866,0.140304,0.043054
3538.795,0.139287,0.0424287
3540.723,0.138271,0.04182
3542.652,0.137254,0.0404937
3544.58,0.136238,0.0383076
3546.509,0.135221,0.0347701
3548.437,0.134205,0.029687
3550.366,0.133188,0.0253677
3552.294,0.132172,0.0311307
3554.223,0.131155,0.0419523
3556.151,0.130139,0.0491497
3558.08,0.129122,0.0575433
3560.008,0.128106,0.0724406
3561.937,0.12709,0.0919557
3563.865,0.126073,0.100981
3565.794,0.125057,0.102375
3567.722,0.12404,0.124672
3569.651,0.123024,0.143699
3571.579,0.122007,0.151987
3573.508,0.120991,0.146223
3575.436,0.119975,0.120066
3577.365,0.118958,0.0839978
3579.293,0.117942,0.0550974
3581.222,0.116925,0.0383627
3583.15,0.115909,0.0306576
3585.079,0.114892,0.0202213
3587.007,0.113876,0.0176233
3588.936,0.112859,0.0363207
3590.864,0.111843,0.0404988
3592.793,0.110826,0.0448123
3594.721,0.10981,0.0657603
3596.65,0.108793,0.0895315
3598.578,0.107777,0.0915408
3600.507,0.10676,0.0715902
3602.435,0.105744,0.0396356
3604.364,0.104727,0.0170053
3606.292,0.103711,0.00652652
3608.221,0.102694,0.00561765
3610.149,0.101678,0.000184343
3612.078,0.100661,-0.007451
3614.006,0.0996451,7.58684e-05
3615.935,0.0986284,-0.0039731
3617.863,0.0976122,-0.00721193
3619.792,0.0965955,0.00124087
3621.72,0.0955793,0.0027074
3623.649,0.0945625,-0.0021381
3625.577,0.0935463,-0.00457484
3627.506,0.0925296,-0.0133706
3629.434,0.0915134,0.00295391
3631.363,0.0904967,0.0044624
3633.291,0.0894805,-0.00574499
3635.22,0.0884637,-0.00130664
3637.148,0.0874475,-0.00136139
3639.077,0.0864308,-0.00328816
3641.005,0.0854146,-0.00510173
3642.934,0.0843978,-0.00516455
3644.862,0.0833816,-0.0115576
3646.791,0.0823649,-0.0209745
3648.719,0.0813487,-0.0143938
3650.648,0.080332,0.00992326
3652.576,0.0793158,0.00588488
3654.505,0.078299,-0.0141491
3656.433,0.0772828,-0.00475326
3658.362,0.0762661,0.00160008
3660.29,0.0752499,-0.00294573
3662.219,0.0742332,-0.000203537
3664.147,0.0732169,-0.00206108
3666.076,0.0722002,-0.011527
3668.004,0.071184,-0.0175441
3669.933,0.0701673,0.000198638
3671.861,0.0691511,0.0128468
3673.79,0.0681343,-0.00481583
3675.718,0.0671181,0.0118544
3677.647,0.0661014,0.0118401
3679.575,0.0650852,0.00352342
3681.504,0.0640685,0.00465286
3683.432,0.0630523,0.00264925
3685.361,0.0620355,-0.000205947
3687.289,0.0610193,-0.00932165
3689.218,0.0600026,0.00421909
3691.146,0.0589864,0.0152403
3693.075,0.0579696,0.0129108
3695.003,0.0569534,0.00588746
3696.932,0.0559367,0.0077553
3698.86,0.0549205,0.0087715

File: SC1-2-800C-7hr-c08-copper-low-baseline.CSV
baseline wavenumber (cm-1),baseline absorbance (cm-1),baseline-subtracted absorbance (cm-1)
3199.379,0.33428,1.36557e-14
3201.308,0.331959,0.00136595
3203.236,0.329649,0.00459237
3205.165,0.327348,0.00868702
3207.093,0.325057,0.0108652
3209.021,0.322777,0.00976011
3210.95,0.320505,0.00983704
3212.878,0.318244,0.0142555
3214.807,0.315992,0.0173128
3216.736,0.313749,0.0155726
3218.664,0.311518,0.017997
3220.593,0.309295,0.0193888
3222.521,0.307083,0.0168749
3224.449,0.304882,0.0166396
3226.378,0.302689,0.0154718
3228.306,0.300506,0.0130087
3230.235,0.298333,0.0150684
3232.164,0.296169,0.0174538
3234.092,0.294017,0.0224468
3236.021,0.291873,0.0279481
3237.949,0.28974,0.025411
3239.877,0.287617,0.0215278
3241.806,0.285503,0.0224337
3243.734,0.283399,0.0243985
3245.663,0.281305,0.0247889
3247.592,0.27922,0.0241399
3249.52,0.277146,0.0214604
3251.448,0.275082,0.0235319
3253.377,0.273027,0.0236605
3255.305,0.270983,0.0216297
3257.234,0.268947,0.0246583
3259.162,0.266923,0.0244995
3261.091,0.264907,0.0226399
3263.02,0.262901,0.0245467
3264.948,0.260906,0.0285114
3266.876,0.258921,0.0282283
3268.805,0.256944,0.0256752
3270.733,0.254979,0.0227676
3272.662,0.253022,0.0249871
3274.591,0.251075,0.0294034
3276.519,0.249139,0.0310346
3278.448,0.247212,0.0298777
3280.376,0.245296,0.0271215
3282.304,0.243389,0.0295056
3284.233,0.241492,0.0328052
3286.161,0.239605,0.032311
3288.09,0.237727,0.0333933
3290.019,0.235859,0.0334616
3291.947,0.234002,0.0351283
3293.875,0.232155,0.0389892
3295.804,0.230316,0.0360314
3297.732,0.228488,0.0324906
3299.661,0.22667,0.0334679
3301.589,0.224862,0.0361169
3303.518,0.223063,0.0394226
3305.447,0.221273,0.0376992
3307.375,0.219495,0.0345277
3309.303,0.217726,0.0388077
3311.232,0.215967,0.043807
3313.16,0.214218,0.0426195
3315.089,0.212478,0.0383047
3317.017,0.210748,0.0385743
3318.946,0.209028,0.0407838
3320.875,0.207318,0.041353
3322.803,0.205618,0.0411018
3324.731,0.203928,0.0389531
3326.66,0.202247,0.0384344
3328.588,0.200577,0.0397882
3330.517,0.198916,0.0450908
3332.445,0.197266,0.0461833
3334.374,0.195624,0.0446235
3336.302,0.193993,0.0465449
3338.231,0.192372,0.0437246
3340.159,0.190761,0.042417
3342.088,0.189158,0.0458607
3344.016,0.187567,0.0467289
3345.945,0.185985,0.0478543
3347.873,0.184413,0.0471183
3349.802,0.18285,0.0469166
3351.73,0.181298,0.0459679
3353.659,0.179755,0.0455508
3355.587,0.178223,0.050149
3357.516,0.1767,0.0536559
3359.444,0.175187,0.0536746
3361.373,0.173684,0.0542659
3363.302,0.17219,0.0571894
3365.23,0.170707,0.0562338
3367.158,0.169234,0.0527409
3369.087,0.16777,0.0526363
3371.015,0.166316,0.0519646
3372.944,0.164872,0.0509983
3374.872,0.163438,0.0497651
3376.801,0.162013,0.0491126
3378.729,0.160599,0.0529153
3380.658,0.159194,0.0558437
3382.586,0.157799,0.0552837
3384.515,0.156414,0.0530882
3386.443,0.155039,0.0560455
3388.372,0.153674,0.0588722
3390.3,0.152318,0.0571408
3392.229,0.150972,0.0550757
3394.157,0.149637,0.0551911
3396.086,0.148311,0.056395
3398.014,0.146995,0.0598445
3399.943,0.145689,0.0667844
3401.871,0.144393,0.0692752
3403.8,0.143106,0.0651026
3405.728,0.141829,0.0649334
3407.657,0.140562,0.0661364
3409.585,0.139306,0.0654891
3411.514,0.138058,0.0679025
3413.442,0.136821,0.0658078
3415.371,0.135594,0.066886
3417.299,0.134376,0.0688608
3419.228,0.133168,0.0686466
3421.156,0.131971,0.0690017
3423.085,0.130782,0.0716526
3425.013,0.129605,0.073438
3426.942,0.128436,0.0732425
3428.87,0.127278,0.0755945
3430.799,0.126129,0.0760095
3432.727,0.12499,0.0752816
3434.656,0.123861,0.0758452
3436.584,0.122742,0.0827681
3438.513,0.121633,0.0879315
3440.441,0.120534,0.0855216
3442.37,0.119444,0.0867499
3444.298,0.118364,0.085045
3446.227,0.117294,0.0823165
3448.155,0.116235,0.0899576
3450.084,0.115184,0.0931742
3452.012,0.114144,0.091159
3453.941,0.113114,0.0884987
3455.869,0.112093,0.0911414
3457.798,0.111082,0.0903982
3459.726,0.110082,0.0909217
3461.655,0.10909,0.0964688
3463.583,0.108109,0.098457
3465.512,0.107138,0.0937225
3467.44,0.106176,0.0947824
3469.369,0.105224,0.0994733
3471.297,0.104283,0.101242
3473.226,0.103351,0.101814
3475.154,0.102429,0.101172
3477.083,0.101516,0.0983603
3479.011,0.100614,0.100619
3480.94,0.0997214,0.10777
3482.868,0.0988389,0.110265
3484.797,0.0979658,0.105224
3486.725,0.097103,0.105166
3488.654,0.0962496,0.106879
3490.582,0.0954065,0.105502
3492.511,0.0945728,0.103435
3494.439,0.0937493,0.101942
3496.368,0.0929353,0.100303
3498.296,0.0921316,0.101933
3500.225,0.0913373,0.096547
3502.153,0.0905533,0.0917271
3504.082,0.0897787,0.0961255
3506.01,0.0890143,0.100175
3507.939,0.0882595,0.0978297
3509.867,0.0875148,0.102635
3511.796,0.0867796,0.111067
3513.724,0.0860547,0.111165
3515.653,0.0853392,0.110445
3517.581,0.0846339,0.117351
3519.51,0.0839381,0.123532
3521.438,0.0832525,0.127318
3523.367,0.0825765,0.133179
3525.295,0.0819106,0.133725
3527.224,0.0812542,0.127589
3529.152,0.080608,0.125462
3531.081,0.0799713,0.121691
3533.009,0.0793448,0.11425
3534.938,0.0787278,0.106641
3536.866,0.078121,0.105237
3538.795,0.0775237,0.104192
3540.723,0.0769366,0.103154
3542.652,0.076359,0.101389
3544.58,0.0757916,0.098754
3546.509,0.0752337,0.0947577
3548.437,0.074686,0.0892062
3550.366,0.0741478,0.0844082
3552.294,0.0736198,0.0896831
3554.223,0.0731013,0.100006
3556.151,0.0725929,0.106696
3558.08,0.0720942,0.114572
3560.008,0.0716055,0.128941
3561.937,0.0711264,0.147919
3563.865,0.0706575,0.156397
3565.794,0.0701981,0.157234
3567.722,0.0697488,0.178964
3569.651,0.0693092,0.197414
3571.579,0.0688796,0.205115
3573.508,0.0684596,0.198755
3575.436,0.0680497,0.171991
3577.365,0.0676494,0.135306
3579.293,0.0672592,0.10578
3581.222,0.0668787,0.0884089
3583.15,0.0665082,0.0800581
3585.079,0.0661473,0.0689659
3587.007,0.0657965,0.0657026
3588.936,0.0654553,0.0837244
3590.864,0.0651242,0.0872174
3592.793,0.0648027,0.0908356
3594.721,0.0644913,0.111079
3596.65,0.0641895,0.134135
3598.578,0.0638978,0.13542
3600.507,0.0636157,0.114735
3602.435,0.0633437,0.0820359
3604.364,0.0630813,0.0586512
3606.292,0.062829,0.0474086
3608.221,0.0625863,0.0457256
3610.149,0.0623536,0.0395088
3612.078,0.0621307,0.0310796
3614.006,0.0619177,0.0378033
3615.935,0.0617145,0.0329408
3617.863,0.0615212,0.0288791
3619.792,0.0613376,0.0364987
3621.72,0.061164,0.0371226
3623.649,0.0610002,0.0314242
3625.577,0.0608463,0.0281252
3627.506,0.0607021,0.0184569
3629.434,0.0605679,0.0338994
3631.363,0.0604435,0.0345156
3633.291,0.060329,0.0234065
3635.22,0.0602242,0.0269329
3637.148,0.0601294,0.0259567
3639.077,0.0600444,0.0230983
3641.005,0.0599692,0.0203436
3642.934,0.0599039,0.0193294
3644.862,0.0598484,0.0119756
3646.791,0.0598028,0.00158759
3648.719,0.059767,0.00718789
3650.648,0.0597411,0.0305141
3652.576,0.059725,0.0254756
3654.505,0.0597188,0.0044311
3656.433,0.0597224,0.0128071
3658.362,0.0597359,0.0181303
3660.29,0.0597592,0.0125449
3662.219,0.0597924,0.0142372
3664.147,0.0598354,0.0113205
3666.076,0.0598883,0.000784939
3668.004,0.059951,-0.00631101
3669.933,0.0600235,0.0103424
3671.861,0.0601059,0.021892
3673.79,0.0601982,0.0031203
3675.718,0.0603003,0.0186722
3677.647,0.0604123,0.0175292
3679.575,0.060534,0.00807458
3681.504,0.0606657,0.0080556
3683.432,0.0608072,0.00489433
3685.361,0.0609586,0.000871011
3687.289,0.0611197,-0.00942205
3689.218,0.0612908,0.00293087
3691.146,0.0614716,0.0127551
3693.075,0.0616624,0.00921798
3695.003,0.061863,0.000977926
3696.932,0.0620735,0.00161854
3698.86,0.0622937,0.00139832