Folder: olivine/olivine/FTIR (part 8)

File: SC1-2-800C-7hr-c06-copper-baseline.CSV
baseline wavenumber (cm-1),baseline absorbance (cm-1),baseline-subtracted absorbance (cm-1)
3199.379,0.325246,1.35447e-14
3201.308,0.32333,0.00201583
3203.236,0.321423,0.00516433
3205.165,0.319522,0.00738664
3207.093,0.317629,0.0101996
3209.021,0.315742,0.0119154
3210.95,0.313862,0.0131354
3212.878,0.31199,0.0152713
3214.807,0.310124,0.0171905
3216.736,0.308265,0.015241
3218.664,0.306414,0.0144675
3220.593,0.304569,0.0173603
3222.521,0.302732,0.0162265
3224.449,0.300902,0.0146078
3226.378,0.299079,0.0111015
3228.306,0.297263,0.0069159
3230.235,0.295453,0.00992701
3232.164,0.29365,0.0146409
3234.092,0.291855,0.0200689
3236.021,0.290067,0.0223257
3237.949,0.288286,0.0216132
3239.877,0.286512,0.020745
3241.806,0.284745,0.016702
3243.734,0.282985,0.0152413
3245.663,0.281232,0.0174138
3247.592,0.279485,0.0161981
3249.52,0.277747,0.015582
3251.448,0.276016,0.0170562
3253.377,0.27429,0.0154485
3255.305,0.272573,0.0123761
3257.234,0.270862,0.0143325
3259.162,0.269158,0.0149034
3261.091,0.267461,0.0116422
3263.02,0.265771,0.0116018
3264.948,0.264089,0.0183218
3266.876,0.262413,0.0224551
3268.805,0.260744,0.0176007
3270.733,0.259083,0.0132321
3272.662,0.257428,0.0160093
3274.591,0.25578,0.018603
3276.519,0.25414,0.020925
3278.448,0.252507,0.0207523
3280.376,0.250881,0.018844
3282.304,0.249262,0.0183905
3284.233,0.247649,0.0202461
3286.161,0.246044,0.0199567
3288.09,0.244445,0.0193675
3290.019,0.242854,0.0196309
3291.947,0.24127,0.017863
3293.875,0.239693,0.0208192
3295.804,0.238123,0.0245372
3297.732,0.23656,0.0224927
3299.661,0.235004,0.0218863
3301.589,0.233455,0.0250131
3303.518,0.231913,0.0296161
3305.447,0.230377,0.0268081
3307.375,0.22885,0.0235726
3309.303,0.227329,0.0273115
3311.232,0.225815,0.0277795
3313.16,0.224309,0.0244584
3315.089,0.222808,0.0208348
3317.017,0.221316,0.0182182
3318.946,0.21983,0.0183103
3320.875,0.218351,0.0241816
3322.803,0.21688,0.0260384
3324.731,0.215416,0.0254497
3326.66,0.213958,0.0242228
3328.588,0.212507,0.0227862
3330.517,0.211064,0.029786
3332.445,0.209627,0.0278839
3334.374,0.208198,0.025155
3336.302,0.206776,0.0288831
3338.231,0.20536,0.0254088
3340.159,0.203952,0.0230514
3342.088,0.20255,0.0284005
3344.016,0.201156,0.0346869
3345.945,0.199769,0.0364799
3347.873,0.198389,0.0345828
3349.802,0.197016,0.0332446
3351.73,0.19565,0.0307695
3353.659,0.19429,0.0314595
3355.587,0.192939,0.0348407
3357.516,0.191593,0.0366235
3359.444,0.190256,0.0374221
3361.373,0.188924,0.037256
3363.302,0.1876,0.0397011
3365.23,0.186284,0.0382016
3367.158,0.184974,0.0341447
3369.087,0.183671,0.0329359
3371.015,0.182375,0.0342125
3372.944,0.181086,0.0352183
3374.872,0.179805,0.0372452
3376.801,0.17853,0.0376821
3378.729,0.177263,0.040141
3380.658,0.176002,0.038728
3382.586,0.174749,0.0325024
3384.515,0.173502,0.0292748
3386.443,0.172263,0.0365292
3388.372,0.17103,0.0409438
3390.3,0.169805,0.0373813
3392.229,0.168586,0.0339414
3394.157,0.167375,0.0365862
3396.086,0.16617,0.0397785
3398.014,0.164973,0.0418113
3399.943,0.163783,0.0468215
3401.871,0.1626,0.0507636
3403.8,0.161423,0.0485997
3405.728,0.160254,0.0480823
3407.657,0.159092,0.0464485
3409.585,0.157937,0.044069
3411.514,0.156789,0.0472752
3413.442,0.155648,0.0432187
3415.371,0.154514,0.0425722
3417.299,0.153387,0.0464711
3419.228,0.152267,0.0470674
3421.156,0.151155,0.0508227
3423.085,0.150048,0.0525157
3425.013,0.14895,0.0504017
3426.942,0.147858,0.0474975
3428.87,0.146773,0.0529042
3430.799,0.145695,0.0558686
3432.727,0.144625,0.0533722
3434.656,0.143561,0.0510133
3436.584,0.142505,0.0532104
3438.513,0.141455,0.0584381
3440.441,0.140413,0.0590388
3442.37,0.139377,0.0658908
3444.298,0.138349,0.064688
3446.227,0.137327,0.0592343
3448.155,0.136313,0.0660723
3450.084,0.135305,0.0671057
3452.012,0.134305,0.0640094
3453.941,0.133312,0.0611248
3455.869,0.132326,0.0642293
3457.798,0.131346,0.0665203
3459.726,0.130374,0.0641405
3461.655,0.129409,0.0660979
3463.583,0.128451,0.0682754
3465.512,0.1275,0.065214
3467.44,0.126556,0.0681314
3469.369,0.125619,0.0719178
3471.297,0.124689,0.0705596
3473.226,0.123766,0.066037
3475.154,0.12285,0.068241
3477.083,0.121941,0.0725638
3479.011,0.121039,0.0747717
3480.94,0.120144,0.0787113
3482.868,0.119257,0.0825817
3484.797,0.118376,0.0816811
3486.725,0.117502,0.0845618
3488.654,0.116635,0.0882926
3490.582,0.115776,0.0873579
3492.511,0.114923,0.0774658
3494.439,0.114078,0.0734852
3496.368,0.113239,0.0726985
3498.296,0.112408,0.0763601
3500.225,0.111583,0.06891
3502.153,0.110766,0.0606667
3504.082,0.109955,0.0656667
3506.01,0.109152,0.0739568
3507.939,0.108356,0.0765299
3509.867,0.107566,0.0774534
3511.796,0.106784,0.0838872
3513.724,0.106009,0.0880789
3515.653,0.105241,0.0890391
3517.581,0.10448,0.0954811
3519.51,0.103725,0.102361
3521.438,0.102978,0.107356
3523.367,0.102238,0.114047
3525.295,0.101505,0.109584
3527.224,0.100779,0.101588
3529.152,0.10006,0.10121
3531.081,0.0993484,0.0975403
3533.009,0.0986437,0.0914253
3534.938,0.0979457,0.0908529
3536.866,0.0972551,0.0932604
3538.795,0.0965711,0.0901914
3540.723,0.0958946,0.0847843
3542.652,0.0952247,0.0793491
3544.58,0.0945622,0.0797096
3546.509,0.0939064,0.0746538
3548.437,0.0932579,0.067514
3550.366,0.0926162,0.0661891
3552.294,0.0919818,0.0780213
3554.223,0.0913542,0.0884748
3556.151,0.0907339,0.0930923
3558.08,0.0901203,0.100903
3560.008,0.0895141,0.11693
3561.937,0.0889146,0.130781
3563.865,0.0883224,0.136575
3565.794,0.0877369,0.140512
3567.722,0.0871588,0.165114
3569.651,0.0865875,0.177437
3571.579,0.0860234,0.18365
3573.508,0.0854661,0.179662
3575.436,0.0849162,0.154156
3577.365,0.0843729,0.119152
3579.293,0.083837,0.0898499
3581.222,0.0833079,0.0742149
3583.15,0.082786,0.0649606
3585.079,0.082271,0.0496761
3587.007,0.0817632,0.047921
3588.936,0.0812622,0.064941
3590.864,0.0807685,0.06571
3592.793,0.0802815,0.069497
3594.721,0.0798019,0.0866396
3596.65,0.079329,0.108329
3598.578,0.0788634,0.114796
3600.507,0.0784047,0.101355
3602.435,0.0779531,0.0704086
3604.364,0.0775084,0.043941
3606.292,0.077071,0.0295719
3608.221,0.0766403,0.028079
3610.149,0.0762169,0.0269384
3612.078,0.0758004,0.0178324
3614.006,0.0753911,0.0236846
3615.935,0.0749886,0.0199891
3617.863,0.0745933,0.0184354
3619.792,0.0742049,0.0253978
3621.72,0.0738237,0.0263935
3623.649,0.0734493,0.0183171
3625.577,0.0730822,0.0100687
3627.506,0.0727219,-0.00407162
3629.434,0.0723689,0.0179964
3631.363,0.0720227,0.0244423
3633.291,0.0716837,0.0182688
3635.22,0.0713515,0.0225033
3637.148,0.0710266,0.0200581
3639.077,0.0707085,0.017462
3641.005,0.0703977,0.0114967
3642.934,0.0700937,0.0096996
3644.862,0.0697969,0.00248523
3646.791,0.069507,-0.00760371
3648.719,0.0692242,-0.000104916
3650.648,0.0689484,0.0273153
3652.576,0.0686797,0.0228179
3654.505,0.068418,-0.00283654
3656.433,0.0681634,0.00243762
3658.362,0.0679157,0.0101634
3660.29,0.0676751,0.00594966
3662.219,0.0674415,0.00748305
3664.147,0.067215,0.00630726
3666.076,0.0669955,-0.000874325
3668.004,0.0667831,-0.00576209
3669.933,0.0665776,0.0135171
3671.861,0.0663792,0.0185289
3673.79,0.0661878,-0.0101538
3675.718,0.0660036,0.00808529
3677.647,0.0658262,0.0180704
3679.575,0.065656,0.00813894
3681.504,0.0654927,0.00648334
3683.432,0.0653366,0.00295466
3685.361,0.0651874,-0.000466803
3687.289,0.0650453,-0.00508769
3689.218,0.0649102,0.00864583
3691.146,0.0647822,0.010107
3693.075,0.0646612,0.00693639
3695.003,0.0645472,-0.000989995
3696.932,0.0644402,0.00240223
3698.86,0.0643404,0.00250211

File: SC1-2-800C-7hr-c06-copper-high-baseline.CSV
baseline wavenumber (cm-1),baseline absorbance (cm-1),baseline-subtracted absorbance (cm-1)
3399.943,0.210604,4.16334e-16
3401.871,0.209625,0.00373847
3403.8,0.208645,0.00137793
3405.728,0.207666,0.000671032
3407.657,0.206686,-0.00114528
3409.585,0.205707,-0.00370021
3411.514,0.204727,-0.000662584
3413.442,0.203747,-0.00488045
3415.371,0.202767,-0.00568135
3417.299,0.201788,-0.00192974
3419.228,0.200808,-0.00147374
3421.156,0.199829,0.00214823
3423.085,0.198849,0.00371496
3425.013,0.19787,0.00148183
3426.942,0.19689,-0.00153457
3428.87,0.195911,0.00376702
3430.799,0.194931,0.00663331
3432.727,0.193951,0.00404584
3434.656,0.192971,0.00160292
3436.584,0.191992,0.00372302
3438.513,0.191012,0.00888078
3440.441,0.190033,0.0094185
3442.37,0.189053,0.0162146
3444.298,0.188074,0.014963
3446.227,0.187094,0.00946737
3448.155,0.186115,0.0162706
3450.084,0.185135,0.0172763
3452.012,0.184155,0.0141592
3453.941,0.183175,0.0112609
3455.869,0.182196,0.0143588
3457.798,0.181216,0.0166501
3459.726,0.180237,0.0142778
3461.655,0.179257,0.0162497
3463.583,0.178278,0.0184486
3465.512,0.177298,0.0154157
3467.44,0.176319,0.0183687
3469.369,0.175339,0.0221976
3471.297,0.174359,0.0208891
3473.226,0.173379,0.0164232
3475.154,0.1724,0.0186908
3477.083,0.17142,0.0230844
3479.011,0.170441,0.02537
3480.94,0.169461,0.0293944
3482.868,0.168482,0.0333566
3484.797,0.167502,0.032555
3486.725,0.166523,0.0355415
3488.654,0.165543,0.0393853
3490.582,0.164563,0.0385705
3492.511,0.163583,0.0288055
3494.439,0.162604,0.0249588
3496.368,0.161624,0.0243133
3498.296,0.160645,0.0281229
3500.225,0.159665,0.020828
3502.153,0.158686,0.0127468
3504.082,0.157706,0.0179161
3506.01,0.156727,0.0263824
3507.939,0.155747,0.0291388
3509.867,0.154767,0.0302526
3511.796,0.153788,0.0368837
3513.724,0.152808,0.0412797
3515.653,0.151828,0.0424514
3517.581,0.150849,0.0491119
3519.51,0.149869,0.0562176
3521.438,0.14889,0.0614447
3523.367,0.14791,0.0683758
3525.295,0.146931,0.0641587
3527.224,0.145951,0.0564161
3529.152,0.144971,0.056299
3531.081,0.143992,0.0528971
3533.009,0.143012,0.0470569
3534.938,0.142032,0.0467663
3536.866,0.141053,0.0494625
3538.795,0.140073,0.0466894
3540.723,0.139094,0.041585
3542.652,0.138114,0.0364599
3544.58,0.137135,0.0371372
3546.509,0.136155,0.0324054
3548.437,0.135175,0.0255966
3550.366,0.134196,0.0246098
3552.294,0.133216,0.036787
3554.223,0.132236,0.0475927
3556.151,0.131257,0.0525692
3558.08,0.130277,0.0607464
3560.008,0.129298,0.0771464
3561.937,0.128318,0.0913777
3563.865,0.127339,0.0975592
3565.794,0.126359,0.101891
3567.722,0.125379,0.126893
3569.651,0.1244,0.139625
3571.579,0.12342,0.146253
3573.508,0.12244,0.142688
3575.436,0.121461,0.117611
3577.365,0.120481,0.0830439
3579.293,0.119502,0.0541851
3581.222,0.118522,0.0390009
3583.15,0.117543,0.0302041
3585.079,0.116563,0.0153844
3587.007,0.115583,0.0141008
3588.936,0.114604,0.0315996
3590.864,0.113624,0.0328543
3592.793,0.112644,0.0371342
3594.721,0.111665,0.0547765
3596.65,0.110685,0.0769729
3598.578,0.109706,0.0839536
3600.507,0.108726,0.0710339
3602.435,0.107747,0.0406152
3604.364,0.106767,0.0146827
3606.292,0.105787,0.000855438
3608.221,0.104808,-8.81898e-05
3610.149,0.103828,-0.00067288
3612.078,0.102848,-0.00921552
3614.006,0.101869,-0.00279333
3615.935,0.100889,-0.00591148
3617.863,0.0999098,-0.00688109
3619.792,0.0989299,0.000672758
3621.72,0.0979506,0.00226658
3623.649,0.0969707,-0.00520434
3625.577,0.0959914,-0.0128405
3627.506,0.0950115,-0.0263612
3629.434,0.0940322,-0.00366689
3631.363,0.0930523,0.00341263
3633.291,0.092073,-0.00212051
3635.22,0.0910931,0.0027617
3637.148,0.0901138,0.000970855
3639.077,0.0891339,-0.000963372
3641.005,0.0881546,-0.00626023
3642.934,0.0871747,-0.00738146
3644.862,0.0861954,-0.0139133
3646.791,0.0852155,-0.0233123
3648.719,0.0842362,-0.0151169
3650.648,0.0832564,0.0130073
3652.576,0.082277,0.00922062
3654.505,0.0812972,-0.0157157
3656.433,0.0803178,-0.00971683
3658.362,0.079338,-0.00125886
3660.29,0.0783586,-0.00473382
3662.219,0.0773788,-0.00245421
3664.147,0.0763994,-0.00287712
3666.076,0.0754196,-0.00929841
3668.004,0.0744402,-0.0134192
3669.933,0.0734604,0.00663431
3671.861,0.072481,0.0124271
3673.79,0.0715012,-0.0154671
3675.718,0.0705218,0.00356704
3677.647,0.069542,0.0143547
3679.575,0.0685626,0.00523234
3681.504,0.0675828,0.00439333
3683.432,0.0666034,0.00168785
3685.361,0.0656236,-0.000902953
3687.289,0.0646442,-0.00468657
3689.218,0.0636644,0.00989169
3691.146,0.062685,0.0122042
3693.075,0.0617052,0.00989238
3695.003,0.0607258,0.00283139
3696.932,0.059746,0.0070965
3698.86,0.0587666,0.00807584

File: SC1-2-800C-7hr-c06-copper-low-baseline.CSV
baseline wavenumber (cm-1),baseline absorbance (cm-1),baseline-subtracted absorbance (cm-1)
3199.38,0.325246,1.70974e-14
3201.308,0.322966,0.0023803
3203.236,0.320697,0.00589029
3205.165,0.318437,0.00847145
3207.093,0.316188,0.0116403
3209.02,0.313949,0.0137091
3210.95,0.311718,0.0152795
3212.88,0.309499,0.0177629
3214.81,0.307288,0.0200268
3216.736,0.305087,0.0184193
3218.664,0.302897,0.0179848
3220.593,0.300716,0.0212139
3222.52,0.298545,0.0204134
3224.449,0.296385,0.0191252
3226.38,0.294233,0.0159468
3228.31,0.292092,0.0120862
3230.235,0.28996,0.0154195
3232.164,0.287838,0.0204528
3234.092,0.285727,0.0261973
3236.02,0.283625,0.0287679
3237.949,0.281533,0.0283663
3239.877,0.279451,0.0278061
3241.81,0.277378,0.0240685
3243.73,0.275316,0.0229102
3245.663,0.273263,0.0253825
3247.592,0.27122,0.0244637
3249.52,0.269187,0.0241416
3251.448,0.267165,0.0259069
3253.377,0.265151,0.0245877
3255.305,0.263148,0.0218008
3257.23,0.261154,0.0240401
3259.16,0.259171,0.0248909
3261.091,0.257196,0.0219069
3263.02,0.255232,0.0221409
3264.948,0.253278,0.0291323
3266.88,0.251334,0.0335343
3268.805,0.249399,0.0289459
3270.73,0.247475,0.0248403
3272.66,0.24556,0.0278779
3274.591,0.243654,0.0307291
3276.52,0.24176,0.0333057
3278.448,0.239874,0.0333849
3280.38,0.237999,0.0317255
3282.304,0.236134,0.0315181
3284.23,0.234278,0.0336172
3286.16,0.232432,0.0335684
3288.09,0.230596,0.0332169
3290.02,0.228769,0.0337154
3291.947,0.226953,0.0321796
3293.875,0.225147,0.035365
3295.804,0.22335,0.0393096
3297.732,0.221564,0.0374888
3299.66,0.219787,0.0371033
3301.59,0.21802,0.0404481
3303.518,0.216262,0.0452664
3305.447,0.214514,0.0426709
3307.375,0.212777,0.039645
3309.303,0.21105,0.0435907
3311.232,0.209332,0.0442627
3313.16,0.207624,0.0411427
3315.09,0.205926,0.0377175
3317.02,0.204238,0.0352964
3318.946,0.202559,0.0355813
3320.875,0.20089,0.0416426
3322.803,0.199232,0.0436865
3324.73,0.197583,0.0432821
3326.66,0.195944,0.0422366
3328.59,0.194315,0.0409787
3330.52,0.192695,0.0481545
3332.445,0.191086,0.0464253
3334.37,0.189486,0.0438667
3336.302,0.187897,0.0477621
3338.23,0.186316,0.0444525
3340.159,0.184746,0.0422569
3342.09,0.183186,0.047765
3344.02,0.181636,0.0542075
3345.945,0.180095,0.0561539
3347.873,0.178564,0.0544073
3349.802,0.177043,0.0532169
3351.73,0.175533,0.0508866
3353.659,0.174031,0.0517188
3355.587,0.17254,0.0552393
3357.52,0.171058,0.0571585
3359.44,0.169587,0.0580907
3361.373,0.168125,0.0580556
3363.302,0.166672,0.0606287
3365.23,0.165231,0.0592544
3367.158,0.163799,0.0553198
3369.087,0.162376,0.0542307
3371.015,0.160964,0.055624
3372.94,0.159561,0.0567438
3374.87,0.158168,0.0588818
3376.801,0.156785,0.0594271
3378.73,0.155412,0.0619915
3380.658,0.154049,0.0606811
3382.586,0.152696,0.0545554
3384.515,0.151352,0.051425
3386.44,0.150018,0.0587736
3388.37,0.148694,0.0632796
3390.3,0.14738,0.0598058
3392.23,0.146076,0.0564518
3394.157,0.144782,0.0591795
3396.086,0.143497,0.062452
3398.014,0.142222,0.0645621
3399.94,0.140957,0.069647
3401.87,0.139703,0.0736608
3403.8,0.138457,0.0715658
3405.728,0.137222,0.0711145
3407.657,0.135996,0.0695441
3409.585,0.134781,0.0672251
3411.514,0.133575,0.0704889
3413.442,0.13238,0.0664873
3415.37,0.131193,0.0658929
3417.3,0.130017,0.069841
3419.228,0.128851,0.0704838
3421.156,0.127695,0.0742826
3423.085,0.126548,0.0760164
3425.013,0.125411,0.0739405
3426.942,0.124284,0.0710714
3428.87,0.123167,0.0765105
3430.8,0.12206,0.0795045
3432.73,0.120962,0.0770348
3434.656,0.119875,0.0746998
3436.58,0.118797,0.076918
3438.513,0.117729,0.082164
3440.441,0.116671,0.0827801
3442.37,0.115623,0.0896448
3444.298,0.114585,0.0884519
3446.23,0.113556,0.0830052
3448.155,0.112538,0.0898474
3450.08,0.111529,0.0908823
3452.012,0.11053,0.0877845
3453.941,0.109541,0.0848957
3455.869,0.108562,0.0879932
3457.798,0.107592,0.0902743
3459.73,0.106633,0.0878818
3461.655,0.105683,0.0898238
3463.583,0.104743,0.0919829
3465.512,0.103813,0.0889005
3467.44,0.102893,0.0917939
3469.369,0.101983,0.0955536
3471.297,0.101083,0.0941659
3473.23,0.100192,0.089611
3475.15,0.0993112,0.0917798
3477.083,0.0984401,0.0960646
3479.011,0.0975793,0.0982317
3480.94,0.0967279,0.102128
3482.868,0.0958867,0.105952
3484.797,0.095055,0.105002
3486.725,0.0942336,0.10783
3488.65,0.0934216,0.111506
3490.58,0.0926198,0.110514
3492.511,0.0918275,0.100561
3494.44,0.0910455,0.0965175
3496.368,0.0902729,0.0956647
3498.296,0.0895105,0.0992573
3500.225,0.0887576,0.0917355
3502.153,0.0880149,0.0834176
3504.08,0.0872817,0.0883402
3506.01,0.0865588,0.0965502
3507.94,0.0858453,0.0990403
3509.867,0.085142,0.0998779
3511.796,0.0844482,0.106223
3513.724,0.0837646,0.110323
3515.653,0.0830905,0.111189
3517.58,0.0824266,0.117534
3519.51,0.0817722,0.124315
3521.438,0.081128,0.129207
3523.367,0.0804933,0.135792
3525.295,0.0798688,0.131221
3527.224,0.0792538,0.123113
3529.152,0.0786489,0.122621
3531.08,0.0780536,0.118835
3533.009,0.0774685,0.112601
3534.938,0.0768929,0.111906
3536.866,0.0763275,0.114188
3538.795,0.0757716,0.110991
3540.723,0.0752258,0.105453
3542.652,0.0746896,0.0998842
3544.58,0.0741636,0.100108
3546.509,0.0736471,0.0949131
3548.437,0.0731407,0.0876312
3550.366,0.0726439,0.0861614
3552.29,0.0721573,0.0978459
3554.223,0.0716802,0.108149
3556.151,0.0712132,0.112613
3558.08,0.0707558,0.120268
3560.008,0.0703085,0.136136
3561.937,0.0698708,0.149825
3563.865,0.0694432,0.155455
3565.79,0.0690252,0.159224
3567.722,0.0686173,0.183655
3569.651,0.068219,0.195805
3571.579,0.0678308,0.201843
3573.508,0.0674523,0.197676
3575.44,0.0670837,0.171989
3577.365,0.0667248,0.1368
3579.29,0.066376,0.107311
3581.222,0.0660368,0.091486
3583.15,0.0657077,0.082039
3585.079,0.0653882,0.0665589
3587.007,0.0650788,0.0646054
3588.94,0.064779,0.0814242
3590.864,0.0644892,0.0819892
3592.79,0.0642092,0.0855694
3594.72,0.0639391,0.102502
3596.65,0.0636787,0.123979
3598.578,0.0634283,0.130231
3600.507,0.0631877,0.116572
3602.435,0.062957,0.0854048
3604.364,0.062736,0.0587134
3606.292,0.062525,0.0441178
3608.22,0.0623238,0.0423956
3610.15,0.0621325,0.0410229
3612.078,0.0619509,0.0316819
3614.006,0.0617793,0.0372964
3615.935,0.0616174,0.0333602
3617.863,0.0614655,0.0315632
3619.792,0.0613233,0.0382794
3621.72,0.0611911,0.0390261
3623.65,0.0610687,0.0306977
3625.577,0.0609561,0.0221948
3627.506,0.0608534,0.00779695
3629.434,0.0607605,0.0296048
3631.363,0.0606775,0.0357875
3633.29,0.0606043,0.0293482
3635.22,0.060541,0.0333139
3637.15,0.0604875,0.0305972
3639.077,0.0604438,0.0277267
3641.005,0.0604101,0.0214843
3642.934,0.0603861,0.0194072
3644.862,0.060372,0.0119101
3646.79,0.0603678,0.00153548
3648.719,0.0603734,0.00874594
3650.65,0.0603889,0.0358748
3652.58,0.0604141,0.0310835
3654.505,0.0604493,0.00513211
3656.433,0.0604943,0.0101067
3658.362,0.0605492,0.0175299
3660.29,0.0606138,0.0130109
3662.219,0.0606884,0.0142361
3664.147,0.0607728,0.0127495
3666.08,0.060867,0.00525411
3668,0.0609711,4.98755e-05
3669.933,0.0610851,0.0190096
3671.861,0.0612088,0.0236993
3673.79,0.0613425,-0.00530842
3675.718,0.0614859,0.0126029
3677.647,0.0616393,0.0222573
3679.575,0.0618024,0.0119925
3681.5,0.0619755,0.0100006
3683.43,0.0621583,0.00613293
3685.361,0.0623511,0.0023695
3687.289,0.0625536,-0.00259599
3689.218,0.0627661,0.0107899
3691.15,0.0629883,0.0119009
3693.075,0.0632205,0.00837705
3695,0.0634624,9.48142e-05
3696.93,0.0637143,0.00312819
3698.86,0.0639759,0.00286659